# Huble Space Telescope Throughput
# By 03-28-2022
# https://www.stsci.edu/hst/instrumentation/wfc3/documentation/grism-resources/wfc3-g141-calibrations
# With modification: Throughput = sensitivity * unit('erg cm-2') * photon_energy / area
# Wavelength(nm) Throughput(0-1)
970.00 0.00027
970.10 0.00027
970.20 0.00028
970.30 0.00028
970.40 0.00029
970.50 0.00029
970.60 0.00030
970.70 0.00030
970.80 0.00031
970.90 0.00032
971.00 0.00032
971.10 0.00033
971.20 0.00033
971.30 0.00034
971.40 0.00034
971.50 0.00035
971.60 0.00035
971.70 0.00036
971.80 0.00037
971.90 0.00037
972.00 0.00038
972.10 0.00038
972.20 0.00039
972.30 0.00040
972.40 0.00040
972.50 0.00041
972.60 0.00041
972.70 0.00042
972.80 0.00043
972.90 0.00043
973.00 0.00044
973.10 0.00045
973.20 0.00045
973.30 0.00046
973.40 0.00046
973.50 0.00047
973.60 0.00048
973.70 0.00048
973.80 0.00049
973.90 0.00050
974.00 0.00050
974.10 0.00051
974.20 0.00052
974.30 0.00052
974.40 0.00053
974.50 0.00054
974.60 0.00054
974.70 0.00055
974.80 0.00056
974.90 0.00056
975.00 0.00057
975.10 0.00058
975.20 0.00058
975.30 0.00059
975.40 0.00060
975.50 0.00061
975.60 0.00061
975.70 0.00062
975.80 0.00063
975.90 0.00063
976.00 0.00064
976.10 0.00065
976.20 0.00065
976.30 0.00066
976.40 0.00067
976.50 0.00067
976.60 0.00068
976.70 0.00069
976.80 0.00070
976.90 0.00070
977.00 0.00071
977.10 0.00072
977.20 0.00072
977.30 0.00073
977.40 0.00074
977.50 0.00074
977.60 0.00075
977.70 0.00076
977.80 0.00076
977.90 0.00077
978.00 0.00078
978.10 0.00079
978.20 0.00079
978.30 0.00080
978.40 0.00081
978.50 0.00081
978.60 0.00082
978.70 0.00083
978.80 0.00083
978.90 0.00084
979.00 0.00085
979.10 0.00085
979.20 0.00086
979.30 0.00087
979.40 0.00087
979.50 0.00088
979.60 0.00089
979.70 0.00089
979.80 0.00090
979.90 0.00091
980.00 0.00091
980.10 0.00092
980.20 0.00093
980.30 0.00093
980.40 0.00094
980.50 0.00095
980.60 0.00095
980.70 0.00096
980.80 0.00096
980.90 0.00097
981.00 0.00098
981.10 0.00098
981.20 0.00099
981.30 0.00100
981.40 0.00100
981.50 0.00101
981.60 0.00101
981.70 0.00102
981.80 0.00103
981.90 0.00103
982.00 0.00104
982.10 0.00104
982.20 0.00105
982.30 0.00105
982.40 0.00106
982.50 0.00107
982.60 0.00107
982.70 0.00108
982.80 0.00108
982.90 0.00109
983.00 0.00109
983.10 0.00110
983.20 0.00110
983.30 0.00111
983.40 0.00111
983.50 0.00112
983.60 0.00113
983.70 0.00113
983.80 0.00114
983.90 0.00114
984.00 0.00115
984.10 0.00115
984.20 0.00115
984.30 0.00116
984.40 0.00116
984.50 0.00117
984.60 0.00117
984.70 0.00118
984.80 0.00118
984.90 0.00119
985.00 0.00119
985.10 0.00120
985.20 0.00120
985.30 0.00120
985.40 0.00121
985.50 0.00121
985.60 0.00122
985.70 0.00122
985.80 0.00122
985.90 0.00123
986.00 0.00123
986.10 0.00124
986.20 0.00124
986.30 0.00124
986.40 0.00125
986.50 0.00125
986.60 0.00125
986.70 0.00126
986.80 0.00126
986.90 0.00127
987.00 0.00127
987.10 0.00127
987.20 0.00128
987.30 0.00128
987.40 0.00128
987.50 0.00128
987.60 0.00129
987.70 0.00129
987.80 0.00129
987.90 0.00130
988.00 0.00130
988.10 0.00130
988.20 0.00130
988.30 0.00131
988.40 0.00131
988.50 0.00131
988.60 0.00131
988.70 0.00132
988.80 0.00132
988.90 0.00132
989.00 0.00132
989.10 0.00133
989.20 0.00133
989.30 0.00133
989.40 0.00133
989.50 0.00133
989.60 0.00134
989.70 0.00134
989.80 0.00134
989.90 0.00134
990.00 0.00134
990.10 0.00134
990.20 0.00135
990.30 0.00135
990.40 0.00135
990.50 0.00135
990.60 0.00135
990.70 0.00135
990.80 0.00136
990.90 0.00136
991.00 0.00136
991.10 0.00136
991.20 0.00136
991.30 0.00136
991.40 0.00136
991.50 0.00136
991.60 0.00136
991.70 0.00137
991.80 0.00137
991.90 0.00137
992.00 0.00137
992.10 0.00137
992.20 0.00137
992.30 0.00137
992.40 0.00137
992.50 0.00137
992.60 0.00137
992.70 0.00137
992.80 0.00137
992.90 0.00137
993.00 0.00137
993.10 0.00138
993.20 0.00138
993.30 0.00138
993.40 0.00138
993.50 0.00138
993.60 0.00138
993.70 0.00138
993.80 0.00138
993.90 0.00138
994.00 0.00138
994.10 0.00138
994.20 0.00138
994.30 0.00138
994.40 0.00138
994.50 0.00138
994.60 0.00138
994.70 0.00138
994.80 0.00138
994.90 0.00138
995.00 0.00138
995.10 0.00138
995.20 0.00138
995.30 0.00138
995.40 0.00138
995.50 0.00138
995.60 0.00138
995.70 0.00138
995.80 0.00138
995.90 0.00138
996.00 0.00138
996.10 0.00138
996.20 0.00138
996.30 0.00138
996.40 0.00138
996.50 0.00138
996.60 0.00138
996.70 0.00138
996.80 0.00138
996.90 0.00138
997.00 0.00138
997.10 0.00138
997.20 0.00138
997.30 0.00138
997.40 0.00138
997.50 0.00138
997.60 0.00138
997.70 0.00138
997.80 0.00138
997.90 0.00138
998.00 0.00138
998.10 0.00138
998.20 0.00138
998.30 0.00138
998.40 0.00138
998.50 0.00138
998.60 0.00138
998.70 0.00138
998.80 0.00138
998.90 0.00138
999.00 0.00138
999.10 0.00138
999.20 0.00138
999.30 0.00138
999.40 0.00138
999.50 0.00138
999.60 0.00138
999.70 0.00138
999.80 0.00139
999.90 0.00139
1000.00 0.00139
1000.10 0.00139
1000.20 0.00139
1000.30 0.00139
1000.40 0.00139
1000.50 0.00139
1000.60 0.00139
1000.70 0.00139
1000.80 0.00139
1000.90 0.00139
1001.00 0.00139
1001.10 0.00140
1001.20 0.00140
1001.30 0.00140
1001.40 0.00140
1001.50 0.00140
1001.60 0.00140
1001.70 0.00140
1001.80 0.00141
1001.90 0.00141
1002.00 0.00141
1002.10 0.00141
1002.20 0.00141
1002.30 0.00141
1002.40 0.00142
1002.50 0.00142
1002.60 0.00142
1002.70 0.00142
1002.80 0.00142
1002.90 0.00143
1003.00 0.00143
1003.10 0.00143
1003.20 0.00143
1003.30 0.00144
1003.40 0.00144
1003.50 0.00144
1003.60 0.00144
1003.70 0.00145
1003.80 0.00145
1003.90 0.00145
1004.00 0.00145
1004.10 0.00146
1004.20 0.00146
1004.30 0.00146
1004.40 0.00147
1004.50 0.00147
1004.60 0.00147
1004.70 0.00148
1004.80 0.00148
1004.90 0.00148
1005.00 0.00149
1005.10 0.00149
1005.20 0.00150
1005.30 0.00150
1005.40 0.00150
1005.50 0.00151
1005.60 0.00151
1005.70 0.00152
1005.80 0.00152
1005.90 0.00153
1006.00 0.00153
1006.10 0.00154
1006.20 0.00154
1006.30 0.00155
1006.40 0.00155
1006.50 0.00156
1006.60 0.00156
1006.70 0.00157
1006.80 0.00157
1006.90 0.00158
1007.00 0.00158
1007.10 0.00159
1007.20 0.00159
1007.30 0.00160
1007.40 0.00161
1007.50 0.00161
1007.60 0.00162
1007.70 0.00163
1007.80 0.00163
1007.90 0.00164
1008.00 0.00165
1008.10 0.00165
1008.20 0.00166
1008.30 0.00167
1008.40 0.00167
1008.50 0.00168
1008.60 0.00169
1008.70 0.00169
1008.80 0.00170
1008.90 0.00171
1009.00 0.00172
1009.10 0.00173
1009.20 0.00173
1009.30 0.00174
1009.40 0.00175
1009.50 0.00176
1009.60 0.00177
1009.70 0.00177
1009.80 0.00178
1009.90 0.00179
1010.00 0.00180
1010.10 0.00181
1010.20 0.00182
1010.30 0.00183
1010.40 0.00184
1010.50 0.00185
1010.60 0.00186
1010.70 0.00186
1010.80 0.00187
1010.90 0.00188
1011.00 0.00189
1011.10 0.00190
1011.20 0.00191
1011.30 0.00192
1011.40 0.00193
1011.50 0.00194
1011.60 0.00196
1011.70 0.00197
1011.80 0.00198
1011.90 0.00199
1012.00 0.00200
1012.10 0.00201
1012.20 0.00202
1012.30 0.00203
1012.40 0.00204
1012.50 0.00205
1012.60 0.00207
1012.70 0.00208
1012.80 0.00209
1012.90 0.00210
1013.00 0.00211
1013.10 0.00212
1013.20 0.00214
1013.30 0.00215
1013.40 0.00216
1013.50 0.00217
1013.60 0.00219
1013.70 0.00220
1013.80 0.00221
1013.90 0.00222
1014.00 0.00224
1014.10 0.00225
1014.20 0.00226
1014.30 0.00228
1014.40 0.00229
1014.50 0.00230
1014.60 0.00232
1014.70 0.00233
1014.80 0.00234
1014.90 0.00236
1015.00 0.00237
1015.10 0.00239
1015.20 0.00240
1015.30 0.00241
1015.40 0.00243
1015.50 0.00244
1015.60 0.00246
1015.70 0.00247
1015.80 0.00249
1015.90 0.00250
1016.00 0.00252
1016.10 0.00253
1016.20 0.00255
1016.30 0.00256
1016.40 0.00258
1016.50 0.00259
1016.60 0.00261
1016.70 0.00262
1016.80 0.00264
1016.90 0.00265
1017.00 0.00267
1017.10 0.00268
1017.20 0.00270
1017.30 0.00271
1017.40 0.00273
1017.50 0.00275
1017.60 0.00276
1017.70 0.00278
1017.80 0.00279
1017.90 0.00281
1018.00 0.00283
1018.10 0.00284
1018.20 0.00286
1018.30 0.00288
1018.40 0.00289
1018.50 0.00291
1018.60 0.00293
1018.70 0.00294
1018.80 0.00296
1018.90 0.00298
1019.00 0.00299
1019.10 0.00301
1019.20 0.00303
1019.30 0.00304
1019.40 0.00306
1019.50 0.00308
1019.60 0.00309
1019.70 0.00311
1019.80 0.00313
1019.90 0.00315
1020.00 0.00316
1020.10 0.00318
1020.20 0.00320
1020.30 0.00321
1020.40 0.00323
1020.50 0.00325
1020.60 0.00327
1020.70 0.00328
1020.80 0.00330
1020.90 0.00332
1021.00 0.00334
1021.10 0.00335
1021.20 0.00337
1021.30 0.00339
1021.40 0.00341
1021.50 0.00343
1021.60 0.00344
1021.70 0.00346
1021.80 0.00348
1021.90 0.00350
1022.00 0.00351
1022.10 0.00353
1022.20 0.00355
1022.30 0.00357
1022.40 0.00359
1022.50 0.00360
1022.60 0.00362
1022.70 0.00364
1022.80 0.00366
1022.90 0.00368
1023.00 0.00369
1023.10 0.00371
1023.20 0.00373
1023.30 0.00375
1023.40 0.00376
1023.50 0.00378
1023.60 0.00380
1023.70 0.00382
1023.80 0.00384
1023.90 0.00385
1024.00 0.00387
1024.10 0.00389
1024.20 0.00391
1024.30 0.00393
1024.40 0.00394
1024.50 0.00396
1024.60 0.00398
1024.70 0.00400
1024.80 0.00402
1024.90 0.00403
1025.00 0.00405
1025.10 0.00407
1025.20 0.00409
1025.30 0.00410
1025.40 0.00412
1025.50 0.00414
1025.60 0.00416
1025.70 0.00417
1025.80 0.00419
1025.90 0.00421
1026.00 0.00423
1026.10 0.00424
1026.20 0.00426
1026.30 0.00428
1026.40 0.00430
1026.50 0.00431
1026.60 0.00433
1026.70 0.00435
1026.80 0.00437
1026.90 0.00438
1027.00 0.00440
1027.10 0.00442
1027.20 0.00443
1027.30 0.00445
1027.40 0.00447
1027.50 0.00448
1027.60 0.00450
1027.70 0.00452
1027.80 0.00453
1027.90 0.00455
1028.00 0.00457
1028.10 0.00458
1028.20 0.00460
1028.30 0.00462
1028.40 0.00463
1028.50 0.00465
1028.60 0.00467
1028.70 0.00468
1028.80 0.00470
1028.90 0.00472
1029.00 0.00473
1029.10 0.00475
1029.20 0.00476
1029.30 0.00478
1029.40 0.00480
1029.50 0.00481
1029.60 0.00483
1029.70 0.00484
1029.80 0.00486
1029.90 0.00487
1030.00 0.00489
1030.10 0.00491
1030.20 0.00492
1030.30 0.00494
1030.40 0.00495
1030.50 0.00497
1030.60 0.00498
1030.70 0.00500
1030.80 0.00501
1030.90 0.00503
1031.00 0.00504
1031.10 0.00506
1031.20 0.00507
1031.30 0.00509
1031.40 0.00510
1031.50 0.00512
1031.60 0.00513
1031.70 0.00515
1031.80 0.00516
1031.90 0.00517
1032.00 0.00519
1032.10 0.00520
1032.20 0.00522
1032.30 0.00523
1032.40 0.00525
1032.50 0.00526
1032.60 0.00527
1032.70 0.00529
1032.80 0.00530
1032.90 0.00531
1033.00 0.00533
1033.10 0.00534
1033.20 0.00536
1033.30 0.00537
1033.40 0.00538
1033.50 0.00540
1033.60 0.00541
1033.70 0.00542
1033.80 0.00544
1033.90 0.00545
1034.00 0.00546
1034.10 0.00548
1034.20 0.00549
1034.30 0.00550
1034.40 0.00551
1034.50 0.00553
1034.60 0.00554
1034.70 0.00555
1034.80 0.00557
1034.90 0.00558
1035.00 0.00559
1035.10 0.00560
1035.20 0.00562
1035.30 0.00563
1035.40 0.00564
1035.50 0.00565
1035.60 0.00567
1035.70 0.00568
1035.80 0.00569
1035.90 0.00570
1036.00 0.00572
1036.10 0.00573
1036.20 0.00574
1036.30 0.00575
1036.40 0.00576
1036.50 0.00578
1036.60 0.00579
1036.70 0.00580
1036.80 0.00581
1036.90 0.00582
1037.00 0.00584
1037.10 0.00585
1037.20 0.00586
1037.30 0.00587
1037.40 0.00588
1037.50 0.00590
1037.60 0.00591
1037.70 0.00592
1037.80 0.00593
1037.90 0.00594
1038.00 0.00595
1038.10 0.00597
1038.20 0.00598
1038.30 0.00599
1038.40 0.00600
1038.50 0.00601
1038.60 0.00603
1038.70 0.00604
1038.80 0.00605
1038.90 0.00606
1039.00 0.00607
1039.10 0.00609
1039.20 0.00610
1039.30 0.00611
1039.40 0.00612
1039.50 0.00613
1039.60 0.00615
1039.70 0.00616
1039.80 0.00617
1039.90 0.00618
1040.00 0.00619
1040.10 0.00621
1040.20 0.00622
1040.30 0.00623
1040.40 0.00624
1040.50 0.00626
1040.60 0.00627
1040.70 0.00628
1040.80 0.00629
1040.90 0.00631
1041.00 0.00632
1041.10 0.00633
1041.20 0.00634
1041.30 0.00636
1041.40 0.00637
1041.50 0.00638
1041.60 0.00640
1041.70 0.00641
1041.80 0.00642
1041.90 0.00644
1042.00 0.00645
1042.10 0.00646
1042.20 0.00648
1042.30 0.00649
1042.40 0.00650
1042.50 0.00652
1042.60 0.00653
1042.70 0.00655
1042.80 0.00656
1042.90 0.00658
1043.00 0.00659
1043.10 0.00660
1043.20 0.00662
1043.30 0.00663
1043.40 0.00665
1043.50 0.00666
1043.60 0.00668
1043.70 0.00670
1043.80 0.00671
1043.90 0.00673
1044.00 0.00674
1044.10 0.00676
1044.20 0.00678
1044.30 0.00679
1044.40 0.00681
1044.50 0.00683
1044.60 0.00684
1044.70 0.00686
1044.80 0.00688
1044.90 0.00690
1045.00 0.00691
1045.10 0.00693
1045.20 0.00695
1045.30 0.00697
1045.40 0.00699
1045.50 0.00701
1045.60 0.00702
1045.70 0.00704
1045.80 0.00706
1045.90 0.00708
1046.00 0.00710
1046.10 0.00712
1046.20 0.00714
1046.30 0.00716
1046.40 0.00718
1046.50 0.00721
1046.60 0.00723
1046.70 0.00725
1046.80 0.00727
1046.90 0.00729
1047.00 0.00731
1047.10 0.00734
1047.20 0.00736
1047.30 0.00738
1047.40 0.00741
1047.50 0.00743
1047.60 0.00745
1047.70 0.00748
1047.80 0.00750
1047.90 0.00753
1048.00 0.00755
1048.10 0.00758
1048.20 0.00761
1048.30 0.00763
1048.40 0.00766
1048.50 0.00769
1048.60 0.00771
1048.70 0.00774
1048.80 0.00777
1048.90 0.00780
1049.00 0.00782
1049.10 0.00785
1049.20 0.00788
1049.30 0.00791
1049.40 0.00794
1049.50 0.00797
1049.60 0.00800
1049.70 0.00803
1049.80 0.00807
1049.90 0.00810
1050.00 0.00813
1050.10 0.00816
1050.20 0.00819
1050.30 0.00823
1050.40 0.00826
1050.50 0.00830
1050.60 0.00833
1050.70 0.00837
1050.80 0.00840
1050.90 0.00844
1051.00 0.00847
1051.10 0.00851
1051.20 0.00855
1051.30 0.00858
1051.40 0.00862
1051.50 0.00866
1051.60 0.00870
1051.70 0.00874
1051.80 0.00878
1051.90 0.00882
1052.00 0.00886
1052.10 0.00890
1052.20 0.00894
1052.30 0.00899
1052.40 0.00903
1052.50 0.00907
1052.60 0.00911
1052.70 0.00916
1052.80 0.00920
1052.90 0.00925
1053.00 0.00929
1053.10 0.00934
1053.20 0.00939
1053.30 0.00943
1053.40 0.00948
1053.50 0.00953
1053.60 0.00958
1053.70 0.00963
1053.80 0.00968
1053.90 0.00973
1054.00 0.00978
1054.10 0.00983
1054.20 0.00988
1054.30 0.00993
1054.40 0.00999
1054.50 0.01004
1054.60 0.01009
1054.70 0.01015
1054.80 0.01020
1054.90 0.01026
1055.00 0.01031
1055.10 0.01037
1055.20 0.01043
1055.30 0.01049
1055.40 0.01055
1055.50 0.01060
1055.60 0.01066
1055.70 0.01072
1055.80 0.01079
1055.90 0.01085
1056.00 0.01091
1056.10 0.01097
1056.20 0.01104
1056.30 0.01110
1056.40 0.01116
1056.50 0.01123
1056.60 0.01130
1056.70 0.01136
1056.80 0.01143
1056.90 0.01150
1057.00 0.01156
1057.10 0.01163
1057.20 0.01170
1057.30 0.01177
1057.40 0.01184
1057.50 0.01192
1057.60 0.01199
1057.70 0.01206
1057.80 0.01213
1057.90 0.01221
1058.00 0.01228
1058.10 0.01236
1058.20 0.01244
1058.30 0.01251
1058.40 0.01259
1058.50 0.01267
1058.60 0.01275
1058.70 0.01283
1058.80 0.01291
1058.90 0.01299
1059.00 0.01307
1059.10 0.01315
1059.20 0.01323
1059.30 0.01332
1059.40 0.01340
1059.50 0.01349
1059.60 0.01357
1059.70 0.01366
1059.80 0.01374
1059.90 0.01383
1060.00 0.01392
1060.10 0.01401
1060.20 0.01410
1060.30 0.01419
1060.40 0.01428
1060.50 0.01437
1060.60 0.01447
1060.70 0.01456
1060.80 0.01465
1060.90 0.01475
1061.00 0.01484
1061.10 0.01494
1061.20 0.01504
1061.30 0.01513
1061.40 0.01523
1061.50 0.01533
1061.60 0.01543
1061.70 0.01553
1061.80 0.01563
1061.90 0.01573
1062.00 0.01584
1062.10 0.01594
1062.20 0.01604
1062.30 0.01615
1062.40 0.01625
1062.50 0.01636
1062.60 0.01647
1062.70 0.01657
1062.80 0.01668
1062.90 0.01679
1063.00 0.01690
1063.10 0.01701
1063.20 0.01712
1063.30 0.01724
1063.40 0.01735
1063.50 0.01746
1063.60 0.01758
1063.70 0.01769
1063.80 0.01781
1063.90 0.01792
1064.00 0.01804
1064.10 0.01816
1064.20 0.01828
1064.30 0.01840
1064.40 0.01852
1064.50 0.01864
1064.60 0.01876
1064.70 0.01888
1064.80 0.01900
1064.90 0.01913
1065.00 0.01925
1065.10 0.01938
1065.20 0.01950
1065.30 0.01963
1065.40 0.01976
1065.50 0.01988
1065.60 0.02001
1065.70 0.02014
1065.80 0.02027
1065.90 0.02040
1066.00 0.02053
1066.10 0.02067
1066.20 0.02080
1066.30 0.02093
1066.40 0.02107
1066.50 0.02120
1066.60 0.02134
1066.70 0.02148
1066.80 0.02161
1066.90 0.02175
1067.00 0.02189
1067.10 0.02203
1067.20 0.02217
1067.30 0.02231
1067.40 0.02245
1067.50 0.02259
1067.60 0.02274
1067.70 0.02288
1067.80 0.02302
1067.90 0.02317
1068.00 0.02331
1068.10 0.02346
1068.20 0.02361
1068.30 0.02375
1068.40 0.02390
1068.50 0.02405
1068.60 0.02420
1068.70 0.02435
1068.80 0.02450
1068.90 0.02465
1069.00 0.02481
1069.10 0.02496
1069.20 0.02511
1069.30 0.02527
1069.40 0.02542
1069.50 0.02558
1069.60 0.02573
1069.70 0.02589
1069.80 0.02605
1069.90 0.02621
1070.00 0.02637
1070.10 0.02652
1070.20 0.02668
1070.30 0.02685
1070.40 0.02701
1070.50 0.02717
1070.60 0.02733
1070.70 0.02749
1070.80 0.02766
1070.90 0.02782
1071.00 0.02799
1071.10 0.02815
1071.20 0.02832
1071.30 0.02848
1071.40 0.02865
1071.50 0.02882
1071.60 0.02899
1071.70 0.02916
1071.80 0.02933
1071.90 0.02950
1072.00 0.02967
1072.10 0.02984
1072.20 0.03001
1072.30 0.03018
1072.40 0.03036
1072.50 0.03053
1072.60 0.03070
1072.70 0.03088
1072.80 0.03105
1072.90 0.03123
1073.00 0.03140
1073.10 0.03158
1073.20 0.03176
1073.30 0.03194
1073.40 0.03211
1073.50 0.03229
1073.60 0.03247
1073.70 0.03265
1073.80 0.03283
1073.90 0.03301
1074.00 0.03319
1074.10 0.03337
1074.20 0.03356
1074.30 0.03374
1074.40 0.03392
1074.50 0.03410
1074.60 0.03429
1074.70 0.03447
1074.80 0.03466
1074.90 0.03484
1075.00 0.03503
1075.10 0.03521
1075.20 0.03540
1075.30 0.03559
1075.40 0.03577
1075.50 0.03596
1075.60 0.03615
1075.70 0.03634
1075.80 0.03653
1075.90 0.03672
1076.00 0.03691
1076.10 0.03710
1076.20 0.03729
1076.30 0.03748
1076.40 0.03767
1076.50 0.03786
1076.60 0.03805
1076.70 0.03824
1076.80 0.03844
1076.90 0.03863
1077.00 0.03882
1077.10 0.03902
1077.20 0.03921
1077.30 0.03940
1077.40 0.03960
1077.50 0.03979
1077.60 0.03999
1077.70 0.04018
1077.80 0.04038
1077.90 0.04057
1078.00 0.04077
1078.10 0.04097
1078.20 0.04116
1078.30 0.04136
1078.40 0.04156
1078.50 0.04175
1078.60 0.04195
1078.70 0.04215
1078.80 0.04235
1078.90 0.04254
1079.00 0.04274
1079.10 0.04294
1079.20 0.04314
1079.30 0.04334
1079.40 0.04354
1079.50 0.04374
1079.60 0.04394
1079.70 0.04414
1079.80 0.04434
1079.90 0.04454
1080.00 0.04474
1080.10 0.04494
1080.20 0.04514
1080.30 0.04534
1080.40 0.04554
1080.50 0.04574
1080.60 0.04594
1080.70 0.04614
1080.80 0.04634
1080.90 0.04654
1081.00 0.04674
1081.10 0.04695
1081.20 0.04715
1081.30 0.04735
1081.40 0.04755
1081.50 0.04775
1081.60 0.04795
1081.70 0.04816
1081.80 0.04836
1081.90 0.04856
1082.00 0.04876
1082.10 0.04896
1082.20 0.04916
1082.30 0.04937
1082.40 0.04957
1082.50 0.04977
1082.60 0.04997
1082.70 0.05017
1082.80 0.05038
1082.90 0.05058
1083.00 0.05078
1083.10 0.05098
1083.20 0.05118
1083.30 0.05138
1083.40 0.05159
1083.50 0.05179
1083.60 0.05199
1083.70 0.05219
1083.80 0.05239
1083.90 0.05259
1084.00 0.05279
1084.10 0.05299
1084.20 0.05320
1084.30 0.05340
1084.40 0.05360
1084.50 0.05380
1084.60 0.05400
1084.70 0.05420
1084.80 0.05440
1084.90 0.05460
1085.00 0.05480
1085.10 0.05500
1085.20 0.05520
1085.30 0.05540
1085.40 0.05559
1085.50 0.05579
1085.60 0.05599
1085.70 0.05619
1085.80 0.05639
1085.90 0.05659
1086.00 0.05679
1086.10 0.05698
1086.20 0.05718
1086.30 0.05738
1086.40 0.05757
1086.50 0.05777
1086.60 0.05797
1086.70 0.05816
1086.80 0.05836
1086.90 0.05856
1087.00 0.05875
1087.10 0.05895
1087.20 0.05914
1087.30 0.05933
1087.40 0.05953
1087.50 0.05972
1087.60 0.05992
1087.70 0.06011
1087.80 0.06030
1087.90 0.06050
1088.00 0.06069
1088.10 0.06088
1088.20 0.06107
1088.30 0.06126
1088.40 0.06145
1088.50 0.06164
1088.60 0.06183
1088.70 0.06202
1088.80 0.06221
1088.90 0.06240
1089.00 0.06259
1089.10 0.06278
1089.20 0.06297
1089.30 0.06315
1089.40 0.06334
1089.50 0.06353
1089.60 0.06371
1089.70 0.06390
1089.80 0.06409
1089.90 0.06427
1090.00 0.06446
1090.10 0.06464
1090.20 0.06482
1090.30 0.06501
1090.40 0.06519
1090.50 0.06537
1090.60 0.06555
1090.70 0.06573
1090.80 0.06591
1090.90 0.06610
1091.00 0.06627
1091.10 0.06645
1091.20 0.06663
1091.30 0.06681
1091.40 0.06699
1091.50 0.06717
1091.60 0.06734
1091.70 0.06752
1091.80 0.06770
1091.90 0.06787
1092.00 0.06805
1092.10 0.06822
1092.20 0.06839
1092.30 0.06857
1092.40 0.06874
1092.50 0.06891
1092.60 0.06908
1092.70 0.06925
1092.80 0.06942
1092.90 0.06959
1093.00 0.06976
1093.10 0.06993
1093.20 0.07010
1093.30 0.07027
1093.40 0.07043
1093.50 0.07060
1093.60 0.07076
1093.70 0.07093
1093.80 0.07109
1093.90 0.07126
1094.00 0.07142
1094.10 0.07158
1094.20 0.07174
1094.30 0.07191
1094.40 0.07207
1094.50 0.07223
1094.60 0.07239
1094.70 0.07254
1094.80 0.07270
1094.90 0.07286
1095.00 0.07302
1095.10 0.07317
1095.20 0.07333
1095.30 0.07348
1095.40 0.07364
1095.50 0.07379
1095.60 0.07394
1095.70 0.07409
1095.80 0.07425
1095.90 0.07440
1096.00 0.07455
1096.10 0.07470
1096.20 0.07484
1096.30 0.07499
1096.40 0.07514
1096.50 0.07529
1096.60 0.07543
1096.70 0.07558
1096.80 0.07572
1096.90 0.07586
1097.00 0.07601
1097.10 0.07615
1097.20 0.07629
1097.30 0.07643
1097.40 0.07657
1097.50 0.07671
1097.60 0.07685
1097.70 0.07699
1097.80 0.07712
1097.90 0.07726
1098.00 0.07740
1098.10 0.07753
1098.20 0.07767
1098.30 0.07780
1098.40 0.07793
1098.50 0.07806
1098.60 0.07819
1098.70 0.07833
1098.80 0.07845
1098.90 0.07858
1099.00 0.07871
1099.10 0.07884
1099.20 0.07897
1099.30 0.07909
1099.40 0.07922
1099.50 0.07934
1099.60 0.07946
1099.70 0.07959
1099.80 0.07971
1099.90 0.07983
1100.00 0.07995
1100.10 0.08007
1100.20 0.08019
1100.30 0.08031
1100.40 0.08042
1100.50 0.08054
1100.60 0.08066
1100.70 0.08077
1100.80 0.08089
1100.90 0.08100
1101.00 0.08111
1101.10 0.08122
1101.20 0.08133
1101.30 0.08144
1101.40 0.08155
1101.50 0.08166
1101.60 0.08177
1101.70 0.08188
1101.80 0.08198
1101.90 0.08209
1102.00 0.08219
1102.10 0.08230
1102.20 0.08240
1102.30 0.08250
1102.40 0.08260
1102.50 0.08270
1102.60 0.08280
1102.70 0.08290
1102.80 0.08300
1102.90 0.08310
1103.00 0.08320
1103.10 0.08329
1103.20 0.08339
1103.30 0.08348
1103.40 0.08357
1103.50 0.08367
1103.60 0.08376
1103.70 0.08385
1103.80 0.08394
1103.90 0.08403
1104.00 0.08412
1104.10 0.08420
1104.20 0.08429
1104.30 0.08438
1104.40 0.08446
1104.50 0.08455
1104.60 0.08463
1104.70 0.08471
1104.80 0.08480
1104.90 0.08488
1105.00 0.08496
1105.10 0.08504
1105.20 0.08512
1105.30 0.08519
1105.40 0.08527
1105.50 0.08535
1105.60 0.08542
1105.70 0.08550
1105.80 0.08557
1105.90 0.08564
1106.00 0.08572
1106.10 0.08579
1106.20 0.08586
1106.30 0.08593
1106.40 0.08600
1106.50 0.08607
1106.60 0.08613
1106.70 0.08620
1106.80 0.08627
1106.90 0.08633
1107.00 0.08640
1107.10 0.08646
1107.20 0.08652
1107.30 0.08659
1107.40 0.08665
1107.50 0.08671
1107.60 0.08677
1107.70 0.08683
1107.80 0.08688
1107.90 0.08694
1108.00 0.08700
1108.10 0.08705
1108.20 0.08711
1108.30 0.08716
1108.40 0.08722
1108.50 0.08727
1108.60 0.08732
1108.70 0.08737
1108.80 0.08742
1108.90 0.08747
1109.00 0.08752
1109.10 0.08757
1109.20 0.08762
1109.30 0.08766
1109.40 0.08771
1109.50 0.08775
1109.60 0.08780
1109.70 0.08784
1109.80 0.08788
1109.90 0.08793
1110.00 0.08797
1110.10 0.08801
1110.20 0.08805
1110.30 0.08809
1110.40 0.08812
1110.50 0.08816
1110.60 0.08820
1110.70 0.08824
1110.80 0.08827
1110.90 0.08830
1111.00 0.08834
1111.10 0.08837
1111.20 0.08840
1111.30 0.08844
1111.40 0.08847
1111.50 0.08850
1111.60 0.08853
1111.70 0.08856
1111.80 0.08858
1111.90 0.08861
1112.00 0.08864
1112.10 0.08866
1112.20 0.08869
1112.30 0.08871
1112.40 0.08874
1112.50 0.08876
1112.60 0.08878
1112.70 0.08880
1112.80 0.08882
1112.90 0.08885
1113.00 0.08886
1113.10 0.08888
1113.20 0.08890
1113.30 0.08892
1113.40 0.08894
1113.50 0.08895
1113.60 0.08897
1113.70 0.08898
1113.80 0.08900
1113.90 0.08901
1114.00 0.08902
1114.10 0.08904
1114.20 0.08905
1114.30 0.08906
1114.40 0.08907
1114.50 0.08908
1114.60 0.08909
1114.70 0.08910
1114.80 0.08910
1114.90 0.08911
1115.00 0.08912
1115.10 0.08912
1115.20 0.08913
1115.30 0.08913
1115.40 0.08914
1115.50 0.08914
1115.60 0.08914
1115.70 0.08914
1115.80 0.08914
1115.90 0.08915
1116.00 0.08915
1116.10 0.08914
1116.20 0.08914
1116.30 0.08914
1116.40 0.08914
1116.50 0.08914
1116.60 0.08913
1116.70 0.08913
1116.80 0.08912
1116.90 0.08912
1117.00 0.08911
1117.10 0.08911
1117.20 0.08910
1117.30 0.08909
1117.40 0.08908
1117.50 0.08908
1117.60 0.08907
1117.70 0.08906
1117.80 0.08905
1117.90 0.08903
1118.00 0.08902
1118.10 0.08901
1118.20 0.08900
1118.30 0.08899
1118.40 0.08897
1118.50 0.08896
1118.60 0.08894
1118.70 0.08893
1118.80 0.08891
1118.90 0.08889
1119.00 0.08888
1119.10 0.08886
1119.20 0.08884
1119.30 0.08882
1119.40 0.08881
1119.50 0.08879
1119.60 0.08877
1119.70 0.08875
1119.80 0.08872
1119.90 0.08870
1120.00 0.08868
1120.10 0.08866
1120.20 0.08863
1120.30 0.08861
1120.40 0.08859
1120.50 0.08856
1120.60 0.08854
1120.70 0.08851
1120.80 0.08849
1120.90 0.08846
1121.00 0.08843
1121.10 0.08841
1121.20 0.08838
1121.30 0.08835
1121.40 0.08832
1121.50 0.08829
1121.60 0.08826
1121.70 0.08823
1121.80 0.08820
1121.90 0.08817
1122.00 0.08814
1122.10 0.08811
1122.20 0.08808
1122.30 0.08804
1122.40 0.08801
1122.50 0.08798
1122.60 0.08794
1122.70 0.08791
1122.80 0.08787
1122.90 0.08784
1123.00 0.08780
1123.10 0.08777
1123.20 0.08773
1123.30 0.08769
1123.40 0.08766
1123.50 0.08762
1123.60 0.08758
1123.70 0.08754
1123.80 0.08750
1123.90 0.08747
1124.00 0.08743
1124.10 0.08739
1124.20 0.08735
1124.30 0.08731
1124.40 0.08726
1124.50 0.08722
1124.60 0.08718
1124.70 0.08714
1124.80 0.08710
1124.90 0.08705
1125.00 0.08701
1125.10 0.08697
1125.20 0.08692
1125.30 0.08688
1125.40 0.08684
1125.50 0.08679
1125.60 0.08675
1125.70 0.08670
1125.80 0.08665
1125.90 0.08661
1126.00 0.08656
1126.10 0.08651
1126.20 0.08647
1126.30 0.08642
1126.40 0.08637
1126.50 0.08632
1126.60 0.08628
1126.70 0.08623
1126.80 0.08618
1126.90 0.08613
1127.00 0.08608
1127.10 0.08603
1127.20 0.08598
1127.30 0.08593
1127.40 0.08588
1127.50 0.08583
1127.60 0.08578
1127.70 0.08573
1127.80 0.08567
1127.90 0.08562
1128.00 0.08557
1128.10 0.08552
1128.20 0.08546
1128.30 0.08541
1128.40 0.08536
1128.50 0.08530
1128.60 0.08525
1128.70 0.08520
1128.80 0.08514
1128.90 0.08509
1129.00 0.08503
1129.10 0.08498
1129.20 0.08492
1129.30 0.08487
1129.40 0.08481
1129.50 0.08476
1129.60 0.08470
1129.70 0.08464
1129.80 0.08459
1129.90 0.08453
1130.00 0.08447
1130.10 0.08442
1130.20 0.08436
1130.30 0.08430
1130.40 0.08424
1130.50 0.08418
1130.60 0.08413
1130.70 0.08407
1130.80 0.08401
1130.90 0.08395
1131.00 0.08389
1131.10 0.08383
1131.20 0.08377
1131.30 0.08371
1131.40 0.08365
1131.50 0.08359
1131.60 0.08353
1131.70 0.08347
1131.80 0.08341
1131.90 0.08335
1132.00 0.08329
1132.10 0.08323
1132.20 0.08317
1132.30 0.08311
1132.40 0.08305
1132.50 0.08298
1132.60 0.08292
1132.70 0.08286
1132.80 0.08280
1132.90 0.08274
1133.00 0.08267
1133.10 0.08261
1133.20 0.08255
1133.30 0.08249
1133.40 0.08242
1133.50 0.08236
1133.60 0.08230
1133.70 0.08223
1133.80 0.08217
1133.90 0.08211
1134.00 0.08204
1134.10 0.08198
1134.20 0.08192
1134.30 0.08185
1134.40 0.08179
1134.50 0.08172
1134.60 0.08166
1134.70 0.08160
1134.80 0.08153
1134.90 0.08147
1135.00 0.08140
1135.10 0.08134
1135.20 0.08127
1135.30 0.08121
1135.40 0.08114
1135.50 0.08108
1135.60 0.08101
1135.70 0.08095
1135.80 0.08088
1135.90 0.08081
1136.00 0.08075
1136.10 0.08068
1136.20 0.08062
1136.30 0.08055
1136.40 0.08049
1136.50 0.08042
1136.60 0.08035
1136.70 0.08029
1136.80 0.08022
1136.90 0.08016
1137.00 0.08009
1137.10 0.08002
1137.20 0.07996
1137.30 0.07989
1137.40 0.07982
1137.50 0.07976
1137.60 0.07969
1137.70 0.07962
1137.80 0.07956
1137.90 0.07949
1138.00 0.07942
1138.10 0.07936
1138.20 0.07929
1138.30 0.07922
1138.40 0.07915
1138.50 0.07909
1138.60 0.07902
1138.70 0.07895
1138.80 0.07889
1138.90 0.07882
1139.00 0.07875
1139.10 0.07868
1139.20 0.07862
1139.30 0.07855
1139.40 0.07848
1139.50 0.07842
1139.60 0.07835
1139.70 0.07828
1139.80 0.07821
1139.90 0.07815
1140.00 0.07808
1140.10 0.07801
1140.20 0.07794
1140.30 0.07788
1140.40 0.07781
1140.50 0.07774
1140.60 0.07767
1140.70 0.07761
1140.80 0.07754
1140.90 0.07747
1141.00 0.07740
1141.10 0.07734
1141.20 0.07727
1141.30 0.07720
1141.40 0.07713
1141.50 0.07707
1141.60 0.07700
1141.70 0.07693
1141.80 0.07686
1141.90 0.07680
1142.00 0.07673
1142.10 0.07666
1142.20 0.07660
1142.30 0.07653
1142.40 0.07646
1142.50 0.07639
1142.60 0.07633
1142.70 0.07626
1142.80 0.07619
1142.90 0.07612
1143.00 0.07606
1143.10 0.07599
1143.20 0.07592
1143.30 0.07586
1143.40 0.07579
1143.50 0.07572
1143.60 0.07566
1143.70 0.07559
1143.80 0.07552
1143.90 0.07545
1144.00 0.07539
1144.10 0.07532
1144.20 0.07525
1144.30 0.07519
1144.40 0.07512
1144.50 0.07505
1144.60 0.07499
1144.70 0.07492
1144.80 0.07486
1144.90 0.07479
1145.00 0.07472
1145.10 0.07466
1145.20 0.07459
1145.30 0.07452
1145.40 0.07446
1145.50 0.07439
1145.60 0.07433
1145.70 0.07426
1145.80 0.07419
1145.90 0.07413
1146.00 0.07406
1146.10 0.07400
1146.20 0.07393
1146.30 0.07387
1146.40 0.07380
1146.50 0.07374
1146.60 0.07367
1146.70 0.07360
1146.80 0.07354
1146.90 0.07347
1147.00 0.07341
1147.10 0.07334
1147.20 0.07328
1147.30 0.07321
1147.40 0.07315
1147.50 0.07308
1147.60 0.07302
1147.70 0.07296
1147.80 0.07289
1147.90 0.07283
1148.00 0.07276
1148.10 0.07270
1148.20 0.07263
1148.30 0.07257
1148.40 0.07251
1148.50 0.07244
1148.60 0.07238
1148.70 0.07231
1148.80 0.07225
1148.90 0.07219
1149.00 0.07212
1149.10 0.07206
1149.20 0.07200
1149.30 0.07193
1149.40 0.07187
1149.50 0.07181
1149.60 0.07175
1149.70 0.07168
1149.80 0.07162
1149.90 0.07156
1150.00 0.07149
1150.10 0.07143
1150.20 0.07137
1150.30 0.07131
1150.40 0.07125
1150.50 0.07118
1150.60 0.07112
1150.70 0.07106
1150.80 0.07100
1150.90 0.07094
1151.00 0.07087
1151.10 0.07081
1151.20 0.07075
1151.30 0.07069
1151.40 0.07063
1151.50 0.07057
1151.60 0.07051
1151.70 0.07045
1151.80 0.07039
1151.90 0.07033
1152.00 0.07026
1152.10 0.07020
1152.20 0.07014
1152.30 0.07008
1152.40 0.07002
1152.50 0.06996
1152.60 0.06990
1152.70 0.06984
1152.80 0.06978
1152.90 0.06973
1153.00 0.06967
1153.10 0.06961
1153.20 0.06955
1153.30 0.06949
1153.40 0.06943
1153.50 0.06937
1153.60 0.06931
1153.70 0.06925
1153.80 0.06919
1153.90 0.06914
1154.00 0.06908
1154.10 0.06902
1154.20 0.06896
1154.30 0.06890
1154.40 0.06885
1154.50 0.06879
1154.60 0.06873
1154.70 0.06867
1154.80 0.06862
1154.90 0.06856
1155.00 0.06850
1155.10 0.06845
1155.20 0.06839
1155.30 0.06833
1155.40 0.06828
1155.50 0.06822
1155.60 0.06816
1155.70 0.06811
1155.80 0.06805
1155.90 0.06799
1156.00 0.06794
1156.10 0.06788
1156.20 0.06783
1156.30 0.06777
1156.40 0.06772
1156.50 0.06766
1156.60 0.06761
1156.70 0.06755
1156.80 0.06750
1156.90 0.06744
1157.00 0.06739
1157.10 0.06733
1157.20 0.06728
1157.30 0.06722
1157.40 0.06717
1157.50 0.06712
1157.60 0.06706
1157.70 0.06701
1157.80 0.06695
1157.90 0.06690
1158.00 0.06685
1158.10 0.06680
1158.20 0.06674
1158.30 0.06669
1158.40 0.06664
1158.50 0.06658
1158.60 0.06653
1158.70 0.06648
1158.80 0.06643
1158.90 0.06637
1159.00 0.06632
1159.10 0.06627
1159.20 0.06622
1159.30 0.06617
1159.40 0.06612
1159.50 0.06606
1159.60 0.06601
1159.70 0.06596
1159.80 0.06591
1159.90 0.06586
1160.00 0.06581
1160.10 0.06576
1160.20 0.06571
1160.30 0.06566
1160.40 0.06561
1160.50 0.06556
1160.60 0.06551
1160.70 0.06546
1160.80 0.06541
1160.90 0.06536
1161.00 0.06531
1161.10 0.06526
1161.20 0.06521
1161.30 0.06516
1161.40 0.06511
1161.50 0.06506
1161.60 0.06502
1161.70 0.06497
1161.80 0.06492
1161.90 0.06487
1162.00 0.06482
1162.10 0.06478
1162.20 0.06473
1162.30 0.06468
1162.40 0.06463
1162.50 0.06458
1162.60 0.06454
1162.70 0.06449
1162.80 0.06444
1162.90 0.06440
1163.00 0.06435
1163.10 0.06430
1163.20 0.06426
1163.30 0.06421
1163.40 0.06416
1163.50 0.06412
1163.60 0.06407
1163.70 0.06403
1163.80 0.06398
1163.90 0.06393
1164.00 0.06389
1164.10 0.06384
1164.20 0.06380
1164.30 0.06375
1164.40 0.06371
1164.50 0.06366
1164.60 0.06362
1164.70 0.06357
1164.80 0.06353
1164.90 0.06349
1165.00 0.06344
1165.10 0.06340
1165.20 0.06335
1165.30 0.06331
1165.40 0.06327
1165.50 0.06322
1165.60 0.06318
1165.70 0.06314
1165.80 0.06309
1165.90 0.06305
1166.00 0.06301
1166.10 0.06296
1166.20 0.06292
1166.30 0.06288
1166.40 0.06284
1166.50 0.06279
1166.60 0.06275
1166.70 0.06271
1166.80 0.06267
1166.90 0.06263
1167.00 0.06258
1167.10 0.06254
1167.20 0.06250
1167.30 0.06246
1167.40 0.06242
1167.50 0.06238
1167.60 0.06234
1167.70 0.06230
1167.80 0.06226
1167.90 0.06221
1168.00 0.06217
1168.10 0.06213
1168.20 0.06209
1168.30 0.06205
1168.40 0.06201
1168.50 0.06197
1168.60 0.06193
1168.70 0.06189
1168.80 0.06185
1168.90 0.06182
1169.00 0.06178
1169.10 0.06174
1169.20 0.06170
1169.30 0.06166
1169.40 0.06162
1169.50 0.06158
1169.60 0.06154
1169.70 0.06150
1169.80 0.06147
1169.90 0.06143
1170.00 0.06139
1170.10 0.06135
1170.20 0.06131
1170.30 0.06128
1170.40 0.06124
1170.50 0.06120
1170.60 0.06116
1170.70 0.06113
1170.80 0.06109
1170.90 0.06105
1171.00 0.06101
1171.10 0.06098
1171.20 0.06094
1171.30 0.06090
1171.40 0.06087
1171.50 0.06083
1171.60 0.06079
1171.70 0.06076
1171.80 0.06072
1171.90 0.06069
1172.00 0.06065
1172.10 0.06061
1172.20 0.06058
1172.30 0.06054
1172.40 0.06051
1172.50 0.06047
1172.60 0.06044
1172.70 0.06040
1172.80 0.06036
1172.90 0.06033
1173.00 0.06029
1173.10 0.06026
1173.20 0.06023
1173.30 0.06019
1173.40 0.06016
1173.50 0.06012
1173.60 0.06009
1173.70 0.06005
1173.80 0.06002
1173.90 0.05998
1174.00 0.05995
1174.10 0.05992
1174.20 0.05988
1174.30 0.05985
1174.40 0.05981
1174.50 0.05978
1174.60 0.05975
1174.70 0.05971
1174.80 0.05968
1174.90 0.05965
1175.00 0.05961
1175.10 0.05958
1175.20 0.05955
1175.30 0.05952
1175.40 0.05948
1175.50 0.05945
1175.60 0.05942
1175.70 0.05938
1175.80 0.05935
1175.90 0.05932
1176.00 0.05929
1176.10 0.05925
1176.20 0.05922
1176.30 0.05919
1176.40 0.05916
1176.50 0.05913
1176.60 0.05909
1176.70 0.05906
1176.80 0.05903
1176.90 0.05900
1177.00 0.05897
1177.10 0.05894
1177.20 0.05890
1177.30 0.05887
1177.40 0.05884
1177.50 0.05881
1177.60 0.05878
1177.70 0.05875
1177.80 0.05872
1177.90 0.05869
1178.00 0.05866
1178.10 0.05862
1178.20 0.05859
1178.30 0.05856
1178.40 0.05853
1178.50 0.05850
1178.60 0.05847
1178.70 0.05844
1178.80 0.05841
1178.90 0.05838
1179.00 0.05835
1179.10 0.05832
1179.20 0.05829
1179.30 0.05826
1179.40 0.05823
1179.50 0.05820
1179.60 0.05817
1179.70 0.05814
1179.80 0.05811
1179.90 0.05808
1180.00 0.05805
1180.10 0.05802
1180.20 0.05799
1180.30 0.05796
1180.40 0.05793
1180.50 0.05790
1180.60 0.05787
1180.70 0.05784
1180.80 0.05781
1180.90 0.05779
1181.00 0.05776
1181.10 0.05773
1181.20 0.05770
1181.30 0.05767
1181.40 0.05764
1181.50 0.05761
1181.60 0.05758
1181.70 0.05755
1181.80 0.05752
1181.90 0.05749
1182.00 0.05747
1182.10 0.05744
1182.20 0.05741
1182.30 0.05738
1182.40 0.05735
1182.50 0.05732
1182.60 0.05729
1182.70 0.05727
1182.80 0.05724
1182.90 0.05721
1183.00 0.05718
1183.10 0.05715
1183.20 0.05712
1183.30 0.05709
1183.40 0.05707
1183.50 0.05704
1183.60 0.05701
1183.70 0.05698
1183.80 0.05695
1183.90 0.05692
1184.00 0.05690
1184.10 0.05687
1184.20 0.05684
1184.30 0.05681
1184.40 0.05678
1184.50 0.05676
1184.60 0.05673
1184.70 0.05670
1184.80 0.05667
1184.90 0.05664
1185.00 0.05661
1185.10 0.05659
1185.20 0.05656
1185.30 0.05653
1185.40 0.05650
1185.50 0.05647
1185.60 0.05645
1185.70 0.05642
1185.80 0.05639
1185.90 0.05636
1186.00 0.05634
1186.10 0.05631
1186.20 0.05628
1186.30 0.05625
1186.40 0.05622
1186.50 0.05620
1186.60 0.05617
1186.70 0.05614
1186.80 0.05611
1186.90 0.05608
1187.00 0.05606
1187.10 0.05603
1187.20 0.05600
1187.30 0.05597
1187.40 0.05594
1187.50 0.05592
1187.60 0.05589
1187.70 0.05586
1187.80 0.05583
1187.90 0.05580
1188.00 0.05578
1188.10 0.05575
1188.20 0.05572
1188.30 0.05569
1188.40 0.05567
1188.50 0.05564
1188.60 0.05561
1188.70 0.05558
1188.80 0.05555
1188.90 0.05553
1189.00 0.05550
1189.10 0.05547
1189.20 0.05544
1189.30 0.05541
1189.40 0.05538
1189.50 0.05536
1189.60 0.05533
1189.70 0.05530
1189.80 0.05527
1189.90 0.05524
1190.00 0.05522
1190.10 0.05519
1190.20 0.05516
1190.30 0.05513
1190.40 0.05510
1190.50 0.05507
1190.60 0.05505
1190.70 0.05502
1190.80 0.05499
1190.90 0.05496
1191.00 0.05493
1191.10 0.05490
1191.20 0.05488
1191.30 0.05485
1191.40 0.05482
1191.50 0.05479
1191.60 0.05476
1191.70 0.05473
1191.80 0.05470
1191.90 0.05468
1192.00 0.05465
1192.10 0.05462
1192.20 0.05459
1192.30 0.05456
1192.40 0.05453
1192.50 0.05450
1192.60 0.05447
1192.70 0.05444
1192.80 0.05442
1192.90 0.05439
1193.00 0.05436
1193.10 0.05433
1193.20 0.05430
1193.30 0.05427
1193.40 0.05424
1193.50 0.05421
1193.60 0.05418
1193.70 0.05415
1193.80 0.05412
1193.90 0.05409
1194.00 0.05406
1194.10 0.05403
1194.20 0.05400
1194.30 0.05397
1194.40 0.05394
1194.50 0.05392
1194.60 0.05389
1194.70 0.05386
1194.80 0.05383
1194.90 0.05380
1195.00 0.05377
1195.10 0.05374
1195.20 0.05371
1195.30 0.05368
1195.40 0.05364
1195.50 0.05361
1195.60 0.05358
1195.70 0.05355
1195.80 0.05352
1195.90 0.05349
1196.00 0.05346
1196.10 0.05343
1196.20 0.05340
1196.30 0.05337
1196.40 0.05334
1196.50 0.05331
1196.60 0.05328
1196.70 0.05325
1196.80 0.05322
1196.90 0.05319
1197.00 0.05315
1197.10 0.05312
1197.20 0.05309
1197.30 0.05306
1197.40 0.05303
1197.50 0.05300
1197.60 0.05297
1197.70 0.05293
1197.80 0.05290
1197.90 0.05287
1198.00 0.05284
1198.10 0.05281
1198.20 0.05278
1198.30 0.05274
1198.40 0.05271
1198.50 0.05268
1198.60 0.05265
1198.70 0.05262
1198.80 0.05258
1198.90 0.05255
1199.00 0.05252
1199.10 0.05249
1199.20 0.05245
1199.30 0.05242
1199.40 0.05239
1199.50 0.05236
1199.60 0.05232
1199.70 0.05229
1199.80 0.05226
1199.90 0.05222
1200.00 0.05219
1200.10 0.05216
1200.20 0.05212
1200.30 0.05209
1200.40 0.05206
1200.50 0.05202
1200.60 0.05199
1200.70 0.05196
1200.80 0.05192
1200.90 0.05189
1201.00 0.05186
1201.10 0.05182
1201.20 0.05179
1201.30 0.05176
1201.40 0.05172
1201.50 0.05169
1201.60 0.05165
1201.70 0.05162
1201.80 0.05158
1201.90 0.05155
1202.00 0.05152
1202.10 0.05148
1202.20 0.05145
1202.30 0.05141
1202.40 0.05138
1202.50 0.05134
1202.60 0.05131
1202.70 0.05127
1202.80 0.05124
1202.90 0.05120
1203.00 0.05117
1203.10 0.05113
1203.20 0.05110
1203.30 0.05106
1203.40 0.05102
1203.50 0.05099
1203.60 0.05095
1203.70 0.05092
1203.80 0.05088
1203.90 0.05085
1204.00 0.05081
1204.10 0.05077
1204.20 0.05074
1204.30 0.05070
1204.40 0.05067
1204.50 0.05063
1204.60 0.05059
1204.70 0.05056
1204.80 0.05052
1204.90 0.05048
1205.00 0.05045
1205.10 0.05041
1205.20 0.05037
1205.30 0.05034
1205.40 0.05030
1205.50 0.05026
1205.60 0.05022
1205.70 0.05019
1205.80 0.05015
1205.90 0.05011
1206.00 0.05007
1206.10 0.05004
1206.20 0.05000
1206.30 0.04996
1206.40 0.04992
1206.50 0.04989
1206.60 0.04985
1206.70 0.04981
1206.80 0.04977
1206.90 0.04973
1207.00 0.04970
1207.10 0.04966
1207.20 0.04962
1207.30 0.04958
1207.40 0.04954
1207.50 0.04950
1207.60 0.04946
1207.70 0.04943
1207.80 0.04939
1207.90 0.04935
1208.00 0.04931
1208.10 0.04927
1208.20 0.04923
1208.30 0.04919
1208.40 0.04915
1208.50 0.04911
1208.60 0.04907
1208.70 0.04903
1208.80 0.04899
1208.90 0.04895
1209.00 0.04892
1209.10 0.04888
1209.20 0.04884
1209.30 0.04880
1209.40 0.04876
1209.50 0.04872
1209.60 0.04868
1209.70 0.04864
1209.80 0.04860
1209.90 0.04855
1210.00 0.04851
1210.10 0.04847
1210.20 0.04843
1210.30 0.04839
1210.40 0.04835
1210.50 0.04831
1210.60 0.04827
1210.70 0.04823
1210.80 0.04819
1210.90 0.04815
1211.00 0.04811
1211.10 0.04807
1211.20 0.04802
1211.30 0.04798
1211.40 0.04794
1211.50 0.04790
1211.60 0.04786
1211.70 0.04782
1211.80 0.04778
1211.90 0.04773
1212.00 0.04769
1212.10 0.04765
1212.20 0.04761
1212.30 0.04757
1212.40 0.04752
1212.50 0.04748
1212.60 0.04744
1212.70 0.04740
1212.80 0.04736
1212.90 0.04731
1213.00 0.04727
1213.10 0.04723
1213.20 0.04719
1213.30 0.04714
1213.40 0.04710
1213.50 0.04706
1213.60 0.04702
1213.70 0.04697
1213.80 0.04693
1213.90 0.04689
1214.00 0.04685
1214.10 0.04680
1214.20 0.04676
1214.30 0.04672
1214.40 0.04667
1214.50 0.04663
1214.60 0.04659
1214.70 0.04654
1214.80 0.04650
1214.90 0.04646
1215.00 0.04641
1215.10 0.04637
1215.20 0.04633
1215.30 0.04628
1215.40 0.04624
1215.50 0.04620
1215.60 0.04615
1215.70 0.04611
1215.80 0.04606
1215.90 0.04602
1216.00 0.04598
1216.10 0.04593
1216.20 0.04589
1216.30 0.04584
1216.40 0.04580
1216.50 0.04576
1216.60 0.04571
1216.70 0.04567
1216.80 0.04562
1216.90 0.04558
1217.00 0.04554
1217.10 0.04549
1217.20 0.04545
1217.30 0.04540
1217.40 0.04536
1217.50 0.04531
1217.60 0.04527
1217.70 0.04522
1217.80 0.04518
1217.90 0.04513
1218.00 0.04509
1218.10 0.04505
1218.20 0.04500
1218.30 0.04496
1218.40 0.04491
1218.50 0.04487
1218.60 0.04482
1218.70 0.04478
1218.80 0.04473
1218.90 0.04469
1219.00 0.04464
1219.10 0.04460
1219.20 0.04455
1219.30 0.04451
1219.40 0.04446
1219.50 0.04442
1219.60 0.04437
1219.70 0.04433
1219.80 0.04428
1219.90 0.04424
1220.00 0.04419
1220.10 0.04414
1220.20 0.04410
1220.30 0.04405
1220.40 0.04401
1220.50 0.04396
1220.60 0.04392
1220.70 0.04387
1220.80 0.04383
1220.90 0.04378
1221.00 0.04374
1221.10 0.04369
1221.20 0.04365
1221.30 0.04360
1221.40 0.04355
1221.50 0.04351
1221.60 0.04346
1221.70 0.04342
1221.80 0.04337
1221.90 0.04333
1222.00 0.04328
1222.10 0.04324
1222.20 0.04319
1222.30 0.04314
1222.40 0.04310
1222.50 0.04305
1222.60 0.04301
1222.70 0.04296
1222.80 0.04292
1222.90 0.04287
1223.00 0.04283
1223.10 0.04278
1223.20 0.04273
1223.30 0.04269
1223.40 0.04264
1223.50 0.04260
1223.60 0.04255
1223.70 0.04251
1223.80 0.04246
1223.90 0.04241
1224.00 0.04237
1224.10 0.04232
1224.20 0.04228
1224.30 0.04223
1224.40 0.04219
1224.50 0.04214
1224.60 0.04209
1224.70 0.04205
1224.80 0.04200
1224.90 0.04196
1225.00 0.04191
1225.10 0.04187
1225.20 0.04182
1225.30 0.04178
1225.40 0.04173
1225.50 0.04168
1225.60 0.04164
1225.70 0.04159
1225.80 0.04155
1225.90 0.04150
1226.00 0.04146
1226.10 0.04141
1226.20 0.04137
1226.30 0.04132
1226.40 0.04128
1226.50 0.04123
1226.60 0.04118
1226.70 0.04114
1226.80 0.04109
1226.90 0.04105
1227.00 0.04100
1227.10 0.04096
1227.20 0.04091
1227.30 0.04087
1227.40 0.04082
1227.50 0.04078
1227.60 0.04073
1227.70 0.04069
1227.80 0.04064
1227.90 0.04060
1228.00 0.04055
1228.10 0.04051
1228.20 0.04046
1228.30 0.04042
1228.40 0.04037
1228.50 0.04033
1228.60 0.04028
1228.70 0.04024
1228.80 0.04019
1228.90 0.04015
1229.00 0.04010
1229.10 0.04006
1229.20 0.04001
1229.30 0.03997
1229.40 0.03993
1229.50 0.03988
1229.60 0.03984
1229.70 0.03979
1229.80 0.03975
1229.90 0.03970
1230.00 0.03966
1230.10 0.03961
1230.20 0.03957
1230.30 0.03953
1230.40 0.03948
1230.50 0.03944
1230.60 0.03939
1230.70 0.03935
1230.80 0.03931
1230.90 0.03926
1231.00 0.03922
1231.10 0.03917
1231.20 0.03913
1231.30 0.03909
1231.40 0.03904
1231.50 0.03900
1231.60 0.03896
1231.70 0.03891
1231.80 0.03887
1231.90 0.03883
1232.00 0.03878
1232.10 0.03874
1232.20 0.03870
1232.30 0.03865
1232.40 0.03861
1232.50 0.03857
1232.60 0.03852
1232.70 0.03848
1232.80 0.03844
1232.90 0.03840
1233.00 0.03835
1233.10 0.03831
1233.20 0.03827
1233.30 0.03822
1233.40 0.03818
1233.50 0.03814
1233.60 0.03810
1233.70 0.03805
1233.80 0.03801
1233.90 0.03797
1234.00 0.03793
1234.10 0.03789
1234.20 0.03784
1234.30 0.03780
1234.40 0.03776
1234.50 0.03772
1234.60 0.03768
1234.70 0.03763
1234.80 0.03759
1234.90 0.03755
1235.00 0.03751
1235.10 0.03747
1235.20 0.03743
1235.30 0.03739
1235.40 0.03734
1235.50 0.03730
1235.60 0.03726
1235.70 0.03722
1235.80 0.03718
1235.90 0.03714
1236.00 0.03710
1236.10 0.03706
1236.20 0.03702
1236.30 0.03698
1236.40 0.03694
1236.50 0.03690
1236.60 0.03685
1236.70 0.03681
1236.80 0.03677
1236.90 0.03673
1237.00 0.03669
1237.10 0.03665
1237.20 0.03661
1237.30 0.03657
1237.40 0.03653
1237.50 0.03650
1237.60 0.03646
1237.70 0.03642
1237.80 0.03638
1237.90 0.03634
1238.00 0.03630
1238.10 0.03626
1238.20 0.03622
1238.30 0.03618
1238.40 0.03614
1238.50 0.03610
1238.60 0.03606
1238.70 0.03603
1238.80 0.03599
1238.90 0.03595
1239.00 0.03591
1239.10 0.03587
1239.20 0.03583
1239.30 0.03580
1239.40 0.03576
1239.50 0.03572
1239.60 0.03568
1239.70 0.03564
1239.80 0.03561
1239.90 0.03557
1240.00 0.03553
1240.10 0.03549
1240.20 0.03546
1240.30 0.03542
1240.40 0.03538
1240.50 0.03534
1240.60 0.03531
1240.70 0.03527
1240.80 0.03523
1240.90 0.03520
1241.00 0.03516
1241.10 0.03512
1241.20 0.03509
1241.30 0.03505
1241.40 0.03501
1241.50 0.03498
1241.60 0.03494
1241.70 0.03491
1241.80 0.03487
1241.90 0.03483
1242.00 0.03480
1242.10 0.03476
1242.20 0.03473
1242.30 0.03469
1242.40 0.03466
1242.50 0.03462
1242.60 0.03459
1242.70 0.03455
1242.80 0.03452
1242.90 0.03448
1243.00 0.03445
1243.10 0.03441
1243.20 0.03438
1243.30 0.03434
1243.40 0.03431
1243.50 0.03427
1243.60 0.03424
1243.70 0.03421
1243.80 0.03417
1243.90 0.03414
1244.00 0.03410
1244.10 0.03407
1244.20 0.03404
1244.30 0.03400
1244.40 0.03397
1244.50 0.03394
1244.60 0.03390
1244.70 0.03387
1244.80 0.03384
1244.90 0.03380
1245.00 0.03377
1245.10 0.03374
1245.20 0.03371
1245.30 0.03367
1245.40 0.03364
1245.50 0.03361
1245.60 0.03358
1245.70 0.03354
1245.80 0.03351
1245.90 0.03348
1246.00 0.03345
1246.10 0.03342
1246.20 0.03338
1246.30 0.03335
1246.40 0.03332
1246.50 0.03329
1246.60 0.03326
1246.70 0.03323
1246.80 0.03320
1246.90 0.03317
1247.00 0.03314
1247.10 0.03310
1247.20 0.03307
1247.30 0.03304
1247.40 0.03301
1247.50 0.03298
1247.60 0.03295
1247.70 0.03292
1247.80 0.03289
1247.90 0.03286
1248.00 0.03283
1248.10 0.03280
1248.20 0.03277
1248.30 0.03274
1248.40 0.03271
1248.50 0.03268
1248.60 0.03265
1248.70 0.03263
1248.80 0.03260
1248.90 0.03257
1249.00 0.03254
1249.10 0.03251
1249.20 0.03248
1249.30 0.03245
1249.40 0.03242
1249.50 0.03239
1249.60 0.03237
1249.70 0.03234
1249.80 0.03231
1249.90 0.03228
1250.00 0.03225
1250.10 0.03223
1250.20 0.03220
1250.30 0.03217
1250.40 0.03214
1250.50 0.03212
1250.60 0.03209
1250.70 0.03206
1250.80 0.03203
1250.90 0.03201
1251.00 0.03198
1251.10 0.03195
1251.20 0.03193
1251.30 0.03190
1251.40 0.03187
1251.50 0.03185
1251.60 0.03182
1251.70 0.03179
1251.80 0.03177
1251.90 0.03174
1252.00 0.03172
1252.10 0.03169
1252.20 0.03166
1252.30 0.03164
1252.40 0.03161
1252.50 0.03159
1252.60 0.03156
1252.70 0.03154
1252.80 0.03151
1252.90 0.03149
1253.00 0.03146
1253.10 0.03143
1253.20 0.03141
1253.30 0.03139
1253.40 0.03136
1253.50 0.03134
1253.60 0.03131
1253.70 0.03129
1253.80 0.03126
1253.90 0.03124
1254.00 0.03121
1254.10 0.03119
1254.20 0.03117
1254.30 0.03114
1254.40 0.03112
1254.50 0.03109
1254.60 0.03107
1254.70 0.03105
1254.80 0.03102
1254.90 0.03100
1255.00 0.03098
1255.10 0.03095
1255.20 0.03093
1255.30 0.03091
1255.40 0.03088
1255.50 0.03086
1255.60 0.03084
1255.70 0.03081
1255.80 0.03079
1255.90 0.03077
1256.00 0.03075
1256.10 0.03072
1256.20 0.03070
1256.30 0.03068
1256.40 0.03066
1256.50 0.03064
1256.60 0.03061
1256.70 0.03059
1256.80 0.03057
1256.90 0.03055
1257.00 0.03053
1257.10 0.03050
1257.20 0.03048
1257.30 0.03046
1257.40 0.03044
1257.50 0.03042
1257.60 0.03040
1257.70 0.03038
1257.80 0.03035
1257.90 0.03033
1258.00 0.03031
1258.10 0.03029
1258.20 0.03027
1258.30 0.03025
1258.40 0.03023
1258.50 0.03021
1258.60 0.03019
1258.70 0.03017
1258.80 0.03015
1258.90 0.03013
1259.00 0.03011
1259.10 0.03009
1259.20 0.03007
1259.30 0.03005
1259.40 0.03003
1259.50 0.03001
1259.60 0.02999
1259.70 0.02997
1259.80 0.02995
1259.90 0.02993
1260.00 0.02991
1260.10 0.02989
1260.20 0.02987
1260.30 0.02985
1260.40 0.02983
1260.50 0.02981
1260.60 0.02979
1260.70 0.02977
1260.80 0.02975
1260.90 0.02973
1261.00 0.02971
1261.10 0.02970
1261.20 0.02968
1261.30 0.02966
1261.40 0.02964
1261.50 0.02962
1261.60 0.02960
1261.70 0.02958
1261.80 0.02956
1261.90 0.02955
1262.00 0.02953
1262.10 0.02951
1262.20 0.02949
1262.30 0.02947
1262.40 0.02945
1262.50 0.02944
1262.60 0.02942
1262.70 0.02940
1262.80 0.02938
1262.90 0.02936
1263.00 0.02935
1263.10 0.02933
1263.20 0.02931
1263.30 0.02929
1263.40 0.02928
1263.50 0.02926
1263.60 0.02924
1263.70 0.02922
1263.80 0.02921
1263.90 0.02919
1264.00 0.02917
1264.10 0.02915
1264.20 0.02914
1264.30 0.02912
1264.40 0.02910
1264.50 0.02908
1264.60 0.02907
1264.70 0.02905
1264.80 0.02903
1264.90 0.02902
1265.00 0.02900
1265.10 0.02898
1265.20 0.02896
1265.30 0.02895
1265.40 0.02893
1265.50 0.02891
1265.60 0.02890
1265.70 0.02888
1265.80 0.02886
1265.90 0.02885
1266.00 0.02883
1266.10 0.02881
1266.20 0.02880
1266.30 0.02878
1266.40 0.02876
1266.50 0.02875
1266.60 0.02873
1266.70 0.02872
1266.80 0.02870
1266.90 0.02868
1267.00 0.02867
1267.10 0.02865
1267.20 0.02863
1267.30 0.02862
1267.40 0.02860
1267.50 0.02858
1267.60 0.02857
1267.70 0.02855
1267.80 0.02854
1267.90 0.02852
1268.00 0.02850
1268.10 0.02849
1268.20 0.02847
1268.30 0.02846
1268.40 0.02844
1268.50 0.02842
1268.60 0.02841
1268.70 0.02839
1268.80 0.02838
1268.90 0.02836
1269.00 0.02835
1269.10 0.02833
1269.20 0.02831
1269.30 0.02830
1269.40 0.02828
1269.50 0.02827
1269.60 0.02825
1269.70 0.02823
1269.80 0.02822
1269.90 0.02820
1270.00 0.02819
1270.10 0.02817
1270.20 0.02816
1270.30 0.02814
1270.40 0.02812
1270.50 0.02811
1270.60 0.02809
1270.70 0.02808
1270.80 0.02806
1270.90 0.02805
1271.00 0.02803
1271.10 0.02802
1271.20 0.02800
1271.30 0.02798
1271.40 0.02797
1271.50 0.02795
1271.60 0.02794
1271.70 0.02792
1271.80 0.02791
1271.90 0.02789
1272.00 0.02788
1272.10 0.02786
1272.20 0.02784
1272.30 0.02783
1272.40 0.02781
1272.50 0.02780
1272.60 0.02778
1272.70 0.02777
1272.80 0.02775
1272.90 0.02774
1273.00 0.02772
1273.10 0.02770
1273.20 0.02769
1273.30 0.02767
1273.40 0.02766
1273.50 0.02764
1273.60 0.02763
1273.70 0.02761
1273.80 0.02759
1273.90 0.02758
1274.00 0.02756
1274.10 0.02755
1274.20 0.02753
1274.30 0.02752
1274.40 0.02750
1274.50 0.02749
1274.60 0.02747
1274.70 0.02745
1274.80 0.02744
1274.90 0.02742
1275.00 0.02741
1275.10 0.02739
1275.20 0.02738
1275.30 0.02736
1275.40 0.02734
1275.50 0.02733
1275.60 0.02731
1275.70 0.02730
1275.80 0.02728
1275.90 0.02726
1276.00 0.02725
1276.10 0.02723
1276.20 0.02722
1276.30 0.02720
1276.40 0.02718
1276.50 0.02717
1276.60 0.02715
1276.70 0.02714
1276.80 0.02712
1276.90 0.02710
1277.00 0.02709
1277.10 0.02707
1277.20 0.02706
1277.30 0.02704
1277.40 0.02702
1277.50 0.02701
1277.60 0.02699
1277.70 0.02698
1277.80 0.02696
1277.90 0.02694
1278.00 0.02693
1278.10 0.02691
1278.20 0.02689
1278.30 0.02688
1278.40 0.02686
1278.50 0.02684
1278.60 0.02683
1278.70 0.02681
1278.80 0.02679
1278.90 0.02678
1279.00 0.02676
1279.10 0.02674
1279.20 0.02673
1279.30 0.02671
1279.40 0.02669
1279.50 0.02668
1279.60 0.02666
1279.70 0.02664
1279.80 0.02663
1279.90 0.02661
1280.00 0.02659
1280.10 0.02658
1280.20 0.02656
1280.30 0.02654
1280.40 0.02653
1280.50 0.02651
1280.60 0.02649
1280.70 0.02647
1280.80 0.02646
1280.90 0.02644
1281.00 0.02642
1281.10 0.02641
1281.20 0.02639
1281.30 0.02637
1281.40 0.02635
1281.50 0.02634
1281.60 0.02632
1281.70 0.02630
1281.80 0.02628
1281.90 0.02627
1282.00 0.02625
1282.10 0.02623
1282.20 0.02621
1282.30 0.02619
1282.40 0.02618
1282.50 0.02616
1282.60 0.02614
1282.70 0.02612
1282.80 0.02611
1282.90 0.02609
1283.00 0.02607
1283.10 0.02605
1283.20 0.02603
1283.30 0.02601
1283.40 0.02600
1283.50 0.02598
1283.60 0.02596
1283.70 0.02594
1283.80 0.02592
1283.90 0.02590
1284.00 0.02589
1284.10 0.02587
1284.20 0.02585
1284.30 0.02583
1284.40 0.02581
1284.50 0.02579
1284.60 0.02577
1284.70 0.02576
1284.80 0.02574
1284.90 0.02572
1285.00 0.02570
1285.10 0.02568
1285.20 0.02566
1285.30 0.02564
1285.40 0.02562
1285.50 0.02560
1285.60 0.02558
1285.70 0.02557
1285.80 0.02555
1285.90 0.02553
1286.00 0.02551
1286.10 0.02549
1286.20 0.02547
1286.30 0.02545
1286.40 0.02543
1286.50 0.02541
1286.60 0.02539
1286.70 0.02537
1286.80 0.02535
1286.90 0.02533
1287.00 0.02531
1287.10 0.02529
1287.20 0.02527
1287.30 0.02525
1287.40 0.02523
1287.50 0.02521
1287.60 0.02519
1287.70 0.02517
1287.80 0.02515
1287.90 0.02513
1288.00 0.02511
1288.10 0.02509
1288.20 0.02507
1288.30 0.02505
1288.40 0.02503
1288.50 0.02501
1288.60 0.02499
1288.70 0.02497
1288.80 0.02494
1288.90 0.02492
1289.00 0.02490
1289.10 0.02488
1289.20 0.02486
1289.30 0.02484
1289.40 0.02482
1289.50 0.02480
1289.60 0.02478
1289.70 0.02476
1289.80 0.02473
1289.90 0.02471
1290.00 0.02469
1290.10 0.02467
1290.20 0.02465
1290.30 0.02463
1290.40 0.02461
1290.50 0.02458
1290.60 0.02456
1290.70 0.02454
1290.80 0.02452
1290.90 0.02450
1291.00 0.02448
1291.10 0.02445
1291.20 0.02443
1291.30 0.02441
1291.40 0.02439
1291.50 0.02437
1291.60 0.02434
1291.70 0.02432
1291.80 0.02430
1291.90 0.02428
1292.00 0.02425
1292.10 0.02423
1292.20 0.02421
1292.30 0.02419
1292.40 0.02416
1292.50 0.02414
1292.60 0.02412
1292.70 0.02410
1292.80 0.02407
1292.90 0.02405
1293.00 0.02403
1293.10 0.02401
1293.20 0.02398
1293.30 0.02396
1293.40 0.02394
1293.50 0.02391
1293.60 0.02389
1293.70 0.02387
1293.80 0.02384
1293.90 0.02382
1294.00 0.02380
1294.10 0.02378
1294.20 0.02375
1294.30 0.02373
1294.40 0.02370
1294.50 0.02368
1294.60 0.02366
1294.70 0.02363
1294.80 0.02361
1294.90 0.02359
1295.00 0.02356
1295.10 0.02354
1295.20 0.02352
1295.30 0.02349
1295.40 0.02347
1295.50 0.02344
1295.60 0.02342
1295.70 0.02340
1295.80 0.02337
1295.90 0.02335
1296.00 0.02332
1296.10 0.02330
1296.20 0.02328
1296.30 0.02325
1296.40 0.02323
1296.50 0.02320
1296.60 0.02318
1296.70 0.02315
1296.80 0.02313
1296.90 0.02311
1297.00 0.02308
1297.10 0.02306
1297.20 0.02303
1297.30 0.02301
1297.40 0.02298
1297.50 0.02296
1297.60 0.02293
1297.70 0.02291
1297.80 0.02288
1297.90 0.02286
1298.00 0.02283
1298.10 0.02281
1298.20 0.02278
1298.30 0.02276
1298.40 0.02273
1298.50 0.02271
1298.60 0.02268
1298.70 0.02266
1298.80 0.02263
1298.90 0.02261
1299.00 0.02258
1299.10 0.02256
1299.20 0.02253
1299.30 0.02251
1299.40 0.02248
1299.50 0.02246
1299.60 0.02243
1299.70 0.02241
1299.80 0.02238
1299.90 0.02236
1300.00 0.02233
1300.10 0.02230
1300.20 0.02228
1300.30 0.02225
1300.40 0.02223
1300.50 0.02220
1300.60 0.02218
1300.70 0.02215
1300.80 0.02212
1300.90 0.02210
1301.00 0.02207
1301.10 0.02205
1301.20 0.02202
1301.30 0.02200
1301.40 0.02197
1301.50 0.02194
1301.60 0.02192
1301.70 0.02189
1301.80 0.02187
1301.90 0.02184
1302.00 0.02181
1302.10 0.02179
1302.20 0.02176
1302.30 0.02174
1302.40 0.02171
1302.50 0.02168
1302.60 0.02166
1302.70 0.02163
1302.80 0.02160
1302.90 0.02158
1303.00 0.02155
1303.10 0.02153
1303.20 0.02150
1303.30 0.02147
1303.40 0.02145
1303.50 0.02142
1303.60 0.02139
1303.70 0.02137
1303.80 0.02134
1303.90 0.02131
1304.00 0.02129
1304.10 0.02126
1304.20 0.02124
1304.30 0.02121
1304.40 0.02118
1304.50 0.02116
1304.60 0.02113
1304.70 0.02110
1304.80 0.02108
1304.90 0.02105
1305.00 0.02102
1305.10 0.02100
1305.20 0.02097
1305.30 0.02094
1305.40 0.02092
1305.50 0.02089
1305.60 0.02086
1305.70 0.02084
1305.80 0.02081
1305.90 0.02078
1306.00 0.02076
1306.10 0.02073
1306.20 0.02070
1306.30 0.02068
1306.40 0.02065
1306.50 0.02062
1306.60 0.02060
1306.70 0.02057
1306.80 0.02054
1306.90 0.02052
1307.00 0.02049
1307.10 0.02046
1307.20 0.02044
1307.30 0.02041
1307.40 0.02038
1307.50 0.02036
1307.60 0.02033
1307.70 0.02030
1307.80 0.02028
1307.90 0.02025
1308.00 0.02022
1308.10 0.02020
1308.20 0.02017
1308.30 0.02014
1308.40 0.02012
1308.50 0.02009
1308.60 0.02006
1308.70 0.02004
1308.80 0.02001
1308.90 0.01998
1309.00 0.01996
1309.10 0.01993
1309.20 0.01990
1309.30 0.01988
1309.40 0.01985
1309.50 0.01983
1309.60 0.01980
1309.70 0.01977
1309.80 0.01975
1309.90 0.01972
1310.00 0.01969
1310.10 0.01967
1310.20 0.01964
1310.30 0.01961
1310.40 0.01959
1310.50 0.01956
1310.60 0.01953
1310.70 0.01951
1310.80 0.01948
1310.90 0.01945
1311.00 0.01943
1311.10 0.01940
1311.20 0.01937
1311.30 0.01935
1311.40 0.01932
1311.50 0.01930
1311.60 0.01927
1311.70 0.01924
1311.80 0.01922
1311.90 0.01919
1312.00 0.01916
1312.10 0.01914
1312.20 0.01911
1312.30 0.01909
1312.40 0.01906
1312.50 0.01903
1312.60 0.01901
1312.70 0.01898
1312.80 0.01896
1312.90 0.01893
1313.00 0.01890
1313.10 0.01888
1313.20 0.01885
1313.30 0.01883
1313.40 0.01880
1313.50 0.01877
1313.60 0.01875
1313.70 0.01872
1313.80 0.01870
1313.90 0.01867
1314.00 0.01864
1314.10 0.01862
1314.20 0.01859
1314.30 0.01857
1314.40 0.01854
1314.50 0.01852
1314.60 0.01849
1314.70 0.01847
1314.80 0.01844
1314.90 0.01841
1315.00 0.01839
1315.10 0.01836
1315.20 0.01834
1315.30 0.01831
1315.40 0.01829
1315.50 0.01826
1315.60 0.01824
1315.70 0.01821
1315.80 0.01819
1315.90 0.01816
1316.00 0.01814
1316.10 0.01811
1316.20 0.01809
1316.30 0.01806
1316.40 0.01804
1316.50 0.01801
1316.60 0.01799
1316.70 0.01796
1316.80 0.01794
1316.90 0.01791
1317.00 0.01789
1317.10 0.01786
1317.20 0.01784
1317.30 0.01781
1317.40 0.01779
1317.50 0.01776
1317.60 0.01774
1317.70 0.01771
1317.80 0.01769
1317.90 0.01767
1318.00 0.01764
1318.10 0.01762
1318.20 0.01759
1318.30 0.01757
1318.40 0.01754
1318.50 0.01752
1318.60 0.01750
1318.70 0.01747
1318.80 0.01745
1318.90 0.01742
1319.00 0.01740
1319.10 0.01738
1319.20 0.01735
1319.30 0.01733
1319.40 0.01730
1319.50 0.01728
1319.60 0.01726
1319.70 0.01723
1319.80 0.01721
1319.90 0.01719
1320.00 0.01716
1320.10 0.01714
1320.20 0.01712
1320.30 0.01709
1320.40 0.01707
1320.50 0.01705
1320.60 0.01702
1320.70 0.01700
1320.80 0.01698
1320.90 0.01695
1321.00 0.01693
1321.10 0.01691
1321.20 0.01688
1321.30 0.01686
1321.40 0.01684
1321.50 0.01682
1321.60 0.01679
1321.70 0.01677
1321.80 0.01675
1321.90 0.01673
1322.00 0.01670
1322.10 0.01668
1322.20 0.01666
1322.30 0.01664
1322.40 0.01661
1322.50 0.01659
1322.60 0.01657
1322.70 0.01655
1322.80 0.01653
1322.90 0.01650
1323.00 0.01648
1323.10 0.01646
1323.20 0.01644
1323.30 0.01642
1323.40 0.01639
1323.50 0.01637
1323.60 0.01635
1323.70 0.01633
1323.80 0.01631
1323.90 0.01629
1324.00 0.01627
1324.10 0.01624
1324.20 0.01622
1324.30 0.01620
1324.40 0.01618
1324.50 0.01616
1324.60 0.01614
1324.70 0.01612
1324.80 0.01610
1324.90 0.01608
1325.00 0.01606
1325.10 0.01603
1325.20 0.01601
1325.30 0.01599
1325.40 0.01597
1325.50 0.01595
1325.60 0.01593
1325.70 0.01591
1325.80 0.01589
1325.90 0.01587
1326.00 0.01585
1326.10 0.01583
1326.20 0.01581
1326.30 0.01579
1326.40 0.01577
1326.50 0.01575
1326.60 0.01573
1326.70 0.01571
1326.80 0.01569
1326.90 0.01567
1327.00 0.01565
1327.10 0.01563
1327.20 0.01561
1327.30 0.01559
1327.40 0.01558
1327.50 0.01556
1327.60 0.01554
1327.70 0.01552
1327.80 0.01550
1327.90 0.01548
1328.00 0.01546
1328.10 0.01544
1328.20 0.01542
1328.30 0.01540
1328.40 0.01539
1328.50 0.01537
1328.60 0.01535
1328.70 0.01533
1328.80 0.01531
1328.90 0.01529
1329.00 0.01527
1329.10 0.01526
1329.20 0.01524
1329.30 0.01522
1329.40 0.01520
1329.50 0.01518
1329.60 0.01517
1329.70 0.01515
1329.80 0.01513
1329.90 0.01511
1330.00 0.01509
1330.10 0.01508
1330.20 0.01506
1330.30 0.01504
1330.40 0.01502
1330.50 0.01501
1330.60 0.01499
1330.70 0.01497
1330.80 0.01496
1330.90 0.01494
1331.00 0.01492
1331.10 0.01490
1331.20 0.01489
1331.30 0.01487
1331.40 0.01485
1331.50 0.01484
1331.60 0.01482
1331.70 0.01480
1331.80 0.01479
1331.90 0.01477
1332.00 0.01475
1332.10 0.01474
1332.20 0.01472
1332.30 0.01471
1332.40 0.01469
1332.50 0.01467
1332.60 0.01466
1332.70 0.01464
1332.80 0.01463
1332.90 0.01461
1333.00 0.01459
1333.10 0.01458
1333.20 0.01456
1333.30 0.01455
1333.40 0.01453
1333.50 0.01452
1333.60 0.01450
1333.70 0.01448
1333.80 0.01447
1333.90 0.01445
1334.00 0.01444
1334.10 0.01442
1334.20 0.01441
1334.30 0.01439
1334.40 0.01438
1334.50 0.01436
1334.60 0.01435
1334.70 0.01433
1334.80 0.01432
1334.90 0.01431
1335.00 0.01429
1335.10 0.01428
1335.20 0.01426
1335.30 0.01425
1335.40 0.01423
1335.50 0.01422
1335.60 0.01420
1335.70 0.01419
1335.80 0.01418
1335.90 0.01416
1336.00 0.01415
1336.10 0.01413
1336.20 0.01412
1336.30 0.01411
1336.40 0.01409
1336.50 0.01408
1336.60 0.01407
1336.70 0.01405
1336.80 0.01404
1336.90 0.01403
1337.00 0.01401
1337.10 0.01400
1337.20 0.01399
1337.30 0.01397
1337.40 0.01396
1337.50 0.01395
1337.60 0.01393
1337.70 0.01392
1337.80 0.01391
1337.90 0.01390
1338.00 0.01388
1338.10 0.01387
1338.20 0.01386
1338.30 0.01384
1338.40 0.01383
1338.50 0.01382
1338.60 0.01381
1338.70 0.01379
1338.80 0.01378
1338.90 0.01377
1339.00 0.01376
1339.10 0.01375
1339.20 0.01373
1339.30 0.01372
1339.40 0.01371
1339.50 0.01370
1339.60 0.01369
1339.70 0.01367
1339.80 0.01366
1339.90 0.01365
1340.00 0.01364
1340.10 0.01363
1340.20 0.01362
1340.30 0.01360
1340.40 0.01359
1340.50 0.01358
1340.60 0.01357
1340.70 0.01356
1340.80 0.01355
1340.90 0.01354
1341.00 0.01353
1341.10 0.01351
1341.20 0.01350
1341.30 0.01349
1341.40 0.01348
1341.50 0.01347
1341.60 0.01346
1341.70 0.01345
1341.80 0.01344
1341.90 0.01343
1342.00 0.01342
1342.10 0.01341
1342.20 0.01340
1342.30 0.01339
1342.40 0.01338
1342.50 0.01337
1342.60 0.01335
1342.70 0.01334
1342.80 0.01333
1342.90 0.01332
1343.00 0.01331
1343.10 0.01330
1343.20 0.01329
1343.30 0.01328
1343.40 0.01327
1343.50 0.01326
1343.60 0.01325
1343.70 0.01324
1343.80 0.01324
1343.90 0.01323
1344.00 0.01322
1344.10 0.01321
1344.20 0.01320
1344.30 0.01319
1344.40 0.01318
1344.50 0.01317
1344.60 0.01316
1344.70 0.01315
1344.80 0.01314
1344.90 0.01313
1345.00 0.01312
1345.10 0.01311
1345.20 0.01310
1345.30 0.01309
1345.40 0.01309
1345.50 0.01308
1345.60 0.01307
1345.70 0.01306
1345.80 0.01305
1345.90 0.01304
1346.00 0.01303
1346.10 0.01302
1346.20 0.01302
1346.30 0.01301
1346.40 0.01300
1346.50 0.01299
1346.60 0.01298
1346.70 0.01297
1346.80 0.01296
1346.90 0.01296
1347.00 0.01295
1347.10 0.01294
1347.20 0.01293
1347.30 0.01292
1347.40 0.01291
1347.50 0.01291
1347.60 0.01290
1347.70 0.01289
1347.80 0.01288
1347.90 0.01287
1348.00 0.01287
1348.10 0.01286
1348.20 0.01285
1348.30 0.01284
1348.40 0.01283
1348.50 0.01283
1348.60 0.01282
1348.70 0.01281
1348.80 0.01280
1348.90 0.01280
1349.00 0.01279
1349.10 0.01278
1349.20 0.01277
1349.30 0.01277
1349.40 0.01276
1349.50 0.01275
1349.60 0.01274
1349.70 0.01274
1349.80 0.01273
1349.90 0.01272
1350.00 0.01271
1350.10 0.01271
1350.20 0.01270
1350.30 0.01269
1350.40 0.01268
1350.50 0.01268
1350.60 0.01267
1350.70 0.01266
1350.80 0.01266
1350.90 0.01265
1351.00 0.01264
1351.10 0.01264
1351.20 0.01263
1351.30 0.01262
1351.40 0.01261
1351.50 0.01261
1351.60 0.01260
1351.70 0.01259
1351.80 0.01259
1351.90 0.01258
1352.00 0.01257
1352.10 0.01257
1352.20 0.01256
1352.30 0.01255
1352.40 0.01255
1352.50 0.01254
1352.60 0.01253
1352.70 0.01253
1352.80 0.01252
1352.90 0.01251
1353.00 0.01251
1353.10 0.01250
1353.20 0.01250
1353.30 0.01249
1353.40 0.01248
1353.50 0.01248
1353.60 0.01247
1353.70 0.01246
1353.80 0.01246
1353.90 0.01245
1354.00 0.01244
1354.10 0.01244
1354.20 0.01243
1354.30 0.01243
1354.40 0.01242
1354.50 0.01241
1354.60 0.01241
1354.70 0.01240
1354.80 0.01240
1354.90 0.01239
1355.00 0.01238
1355.10 0.01238
1355.20 0.01237
1355.30 0.01237
1355.40 0.01236
1355.50 0.01235
1355.60 0.01235
1355.70 0.01234
1355.80 0.01234
1355.90 0.01233
1356.00 0.01232
1356.10 0.01232
1356.20 0.01231
1356.30 0.01231
1356.40 0.01230
1356.50 0.01230
1356.60 0.01229
1356.70 0.01228
1356.80 0.01228
1356.90 0.01227
1357.00 0.01227
1357.10 0.01226
1357.20 0.01226
1357.30 0.01225
1357.40 0.01224
1357.50 0.01224
1357.60 0.01223
1357.70 0.01223
1357.80 0.01222
1357.90 0.01222
1358.00 0.01221
1358.10 0.01221
1358.20 0.01220
1358.30 0.01219
1358.40 0.01219
1358.50 0.01218
1358.60 0.01218
1358.70 0.01217
1358.80 0.01217
1358.90 0.01216
1359.00 0.01216
1359.10 0.01215
1359.20 0.01215
1359.30 0.01214
1359.40 0.01213
1359.50 0.01213
1359.60 0.01212
1359.70 0.01212
1359.80 0.01211
1359.90 0.01211
1360.00 0.01210
1360.10 0.01210
1360.20 0.01209
1360.30 0.01209
1360.40 0.01208
1360.50 0.01208
1360.60 0.01207
1360.70 0.01207
1360.80 0.01206
1360.90 0.01206
1361.00 0.01205
1361.10 0.01204
1361.20 0.01204
1361.30 0.01203
1361.40 0.01203
1361.50 0.01202
1361.60 0.01202
1361.70 0.01201
1361.80 0.01201
1361.90 0.01200
1362.00 0.01200
1362.10 0.01199
1362.20 0.01199
1362.30 0.01198
1362.40 0.01198
1362.50 0.01197
1362.60 0.01197
1362.70 0.01196
1362.80 0.01196
1362.90 0.01195
1363.00 0.01195
1363.10 0.01194
1363.20 0.01194
1363.30 0.01193
1363.40 0.01193
1363.50 0.01192
1363.60 0.01192
1363.70 0.01191
1363.80 0.01191
1363.90 0.01190
1364.00 0.01190
1364.10 0.01189
1364.20 0.01188
1364.30 0.01188
1364.40 0.01187
1364.50 0.01187
1364.60 0.01186
1364.70 0.01186
1364.80 0.01185
1364.90 0.01185
1365.00 0.01184
1365.10 0.01184
1365.20 0.01183
1365.30 0.01183
1365.40 0.01182
1365.50 0.01182
1365.60 0.01181
1365.70 0.01181
1365.80 0.01180
1365.90 0.01180
1366.00 0.01179
1366.10 0.01179
1366.20 0.01178
1366.30 0.01178
1366.40 0.01177
1366.50 0.01177
1366.60 0.01176
1366.70 0.01176
1366.80 0.01175
1366.90 0.01175
1367.00 0.01174
1367.10 0.01174
1367.20 0.01173
1367.30 0.01173
1367.40 0.01172
1367.50 0.01172
1367.60 0.01171
1367.70 0.01171
1367.80 0.01170
1367.90 0.01170
1368.00 0.01169
1368.10 0.01169
1368.20 0.01168
1368.30 0.01168
1368.40 0.01167
1368.50 0.01167
1368.60 0.01166
1368.70 0.01165
1368.80 0.01165
1368.90 0.01164
1369.00 0.01164
1369.10 0.01163
1369.20 0.01163
1369.30 0.01162
1369.40 0.01162
1369.50 0.01161
1369.60 0.01161
1369.70 0.01160
1369.80 0.01160
1369.90 0.01159
1370.00 0.01159
1370.10 0.01158
1370.20 0.01158
1370.30 0.01157
1370.40 0.01157
1370.50 0.01156
1370.60 0.01156
1370.70 0.01155
1370.80 0.01155
1370.90 0.01154
1371.00 0.01153
1371.10 0.01153
1371.20 0.01152
1371.30 0.01152
1371.40 0.01151
1371.50 0.01151
1371.60 0.01150
1371.70 0.01150
1371.80 0.01149
1371.90 0.01149
1372.00 0.01148
1372.10 0.01148
1372.20 0.01147
1372.30 0.01147
1372.40 0.01146
1372.50 0.01145
1372.60 0.01145
1372.70 0.01144
1372.80 0.01144
1372.90 0.01143
1373.00 0.01143
1373.10 0.01142
1373.20 0.01142
1373.30 0.01141
1373.40 0.01141
1373.50 0.01140
1373.60 0.01140
1373.70 0.01139
1373.80 0.01138
1373.90 0.01138
1374.00 0.01137
1374.10 0.01137
1374.20 0.01136
1374.30 0.01136
1374.40 0.01135
1374.50 0.01135
1374.60 0.01134
1374.70 0.01133
1374.80 0.01133
1374.90 0.01132
1375.00 0.01132
1375.10 0.01131
1375.20 0.01131
1375.30 0.01130
1375.40 0.01129
1375.50 0.01129
1375.60 0.01128
1375.70 0.01128
1375.80 0.01127
1375.90 0.01127
1376.00 0.01126
1376.10 0.01126
1376.20 0.01125
1376.30 0.01124
1376.40 0.01124
1376.50 0.01123
1376.60 0.01123
1376.70 0.01122
1376.80 0.01121
1376.90 0.01121
1377.00 0.01120
1377.10 0.01120
1377.20 0.01119
1377.30 0.01119
1377.40 0.01118
1377.50 0.01117
1377.60 0.01117
1377.70 0.01116
1377.80 0.01116
1377.90 0.01115
1378.00 0.01114
1378.10 0.01114
1378.20 0.01113
1378.30 0.01113
1378.40 0.01112
1378.50 0.01112
1378.60 0.01111
1378.70 0.01110
1378.80 0.01110
1378.90 0.01109
1379.00 0.01109
1379.10 0.01108
1379.20 0.01107
1379.30 0.01107
1379.40 0.01106
1379.50 0.01105
1379.60 0.01105
1379.70 0.01104
1379.80 0.01104
1379.90 0.01103
1380.00 0.01102
1380.10 0.01102
1380.20 0.01101
1380.30 0.01101
1380.40 0.01100
1380.50 0.01099
1380.60 0.01099
1380.70 0.01098
1380.80 0.01097
1380.90 0.01097
1381.00 0.01096
1381.10 0.01096
1381.20 0.01095
1381.30 0.01094
1381.40 0.01094
1381.50 0.01093
1381.60 0.01092
1381.70 0.01092
1381.80 0.01091
1381.90 0.01091
1382.00 0.01090
1382.10 0.01089
1382.20 0.01089
1382.30 0.01088
1382.40 0.01087
1382.50 0.01087
1382.60 0.01086
1382.70 0.01085
1382.80 0.01085
1382.90 0.01084
1383.00 0.01083
1383.10 0.01083
1383.20 0.01082
1383.30 0.01081
1383.40 0.01081
1383.50 0.01080
1383.60 0.01080
1383.70 0.01079
1383.80 0.01078
1383.90 0.01078
1384.00 0.01077
1384.10 0.01076
1384.20 0.01076
1384.30 0.01075
1384.40 0.01074
1384.50 0.01074
1384.60 0.01073
1384.70 0.01072
1384.80 0.01071
1384.90 0.01071
1385.00 0.01070
1385.10 0.01069
1385.20 0.01069
1385.30 0.01068
1385.40 0.01067
1385.50 0.01067
1385.60 0.01066
1385.70 0.01065
1385.80 0.01065
1385.90 0.01064
1386.00 0.01063
1386.10 0.01063
1386.20 0.01062
1386.30 0.01061
1386.40 0.01061
1386.50 0.01060
1386.60 0.01059
1386.70 0.01058
1386.80 0.01058
1386.90 0.01057
1387.00 0.01056
1387.10 0.01056
1387.20 0.01055
1387.30 0.01054
1387.40 0.01053
1387.50 0.01053
1387.60 0.01052
1387.70 0.01051
1387.80 0.01051
1387.90 0.01050
1388.00 0.01049
1388.10 0.01048
1388.20 0.01048
1388.30 0.01047
1388.40 0.01046
1388.50 0.01046
1388.60 0.01045
1388.70 0.01044
1388.80 0.01043
1388.90 0.01043
1389.00 0.01042
1389.10 0.01041
1389.20 0.01040
1389.30 0.01040
1389.40 0.01039
1389.50 0.01038
1389.60 0.01037
1389.70 0.01037
1389.80 0.01036
1389.90 0.01035
1390.00 0.01034
1390.10 0.01034
1390.20 0.01033
1390.30 0.01032
1390.40 0.01031
1390.50 0.01031
1390.60 0.01030
1390.70 0.01029
1390.80 0.01028
1390.90 0.01028
1391.00 0.01027
1391.10 0.01026
1391.20 0.01025
1391.30 0.01025
1391.40 0.01024
1391.50 0.01023
1391.60 0.01022
1391.70 0.01022
1391.80 0.01021
1391.90 0.01020
1392.00 0.01019
1392.10 0.01018
1392.20 0.01018
1392.30 0.01017
1392.40 0.01016
1392.50 0.01015
1392.60 0.01015
1392.70 0.01014
1392.80 0.01013
1392.90 0.01012
1393.00 0.01011
1393.10 0.01011
1393.20 0.01010
1393.30 0.01009
1393.40 0.01008
1393.50 0.01007
1393.60 0.01007
1393.70 0.01006
1393.80 0.01005
1393.90 0.01004
1394.00 0.01003
1394.10 0.01003
1394.20 0.01002
1394.30 0.01001
1394.40 0.01000
1394.50 0.00999
1394.60 0.00998
1394.70 0.00998
1394.80 0.00997
1394.90 0.00996
1395.00 0.00995
1395.10 0.00994
1395.20 0.00993
1395.30 0.00993
1395.40 0.00992
1395.50 0.00991
1395.60 0.00990
1395.70 0.00989
1395.80 0.00989
1395.90 0.00988
1396.00 0.00987
1396.10 0.00986
1396.20 0.00985
1396.30 0.00984
1396.40 0.00983
1396.50 0.00983
1396.60 0.00982
1396.70 0.00981
1396.80 0.00980
1396.90 0.00979
1397.00 0.00978
1397.10 0.00977
1397.20 0.00977
1397.30 0.00976
1397.40 0.00975
1397.50 0.00974
1397.60 0.00973
1397.70 0.00972
1397.80 0.00971
1397.90 0.00971
1398.00 0.00970
1398.10 0.00969
1398.20 0.00968
1398.30 0.00967
1398.40 0.00966
1398.50 0.00965
1398.60 0.00964
1398.70 0.00964
1398.80 0.00963
1398.90 0.00962
1399.00 0.00961
1399.10 0.00960
1399.20 0.00959
1399.30 0.00958
1399.40 0.00957
1399.50 0.00956
1399.60 0.00956
1399.70 0.00955
1399.80 0.00954
1399.90 0.00953
1400.00 0.00952
1400.10 0.00951
1400.20 0.00950
1400.30 0.00949
1400.40 0.00948
1400.50 0.00947
1400.60 0.00947
1400.70 0.00946
1400.80 0.00945
1400.90 0.00944
1401.00 0.00943
1401.10 0.00942
1401.20 0.00941
1401.30 0.00940
1401.40 0.00939
1401.50 0.00938
1401.60 0.00937
1401.70 0.00936
1401.80 0.00935
1401.90 0.00935
1402.00 0.00934
1402.10 0.00933
1402.20 0.00932
1402.30 0.00931
1402.40 0.00930
1402.50 0.00929
1402.60 0.00928
1402.70 0.00927
1402.80 0.00926
1402.90 0.00925
1403.00 0.00924
1403.10 0.00923
1403.20 0.00922
1403.30 0.00921
1403.40 0.00920
1403.50 0.00919
1403.60 0.00918
1403.70 0.00917
1403.80 0.00917
1403.90 0.00916
1404.00 0.00915
1404.10 0.00914
1404.20 0.00913
1404.30 0.00912
1404.40 0.00911
1404.50 0.00910
1404.60 0.00909
1404.70 0.00908
1404.80 0.00907
1404.90 0.00906
1405.00 0.00905
1405.10 0.00904
1405.20 0.00903
1405.30 0.00902
1405.40 0.00901
1405.50 0.00900
1405.60 0.00899
1405.70 0.00898
1405.80 0.00897
1405.90 0.00896
1406.00 0.00895
1406.10 0.00894
1406.20 0.00893
1406.30 0.00892
1406.40 0.00891
1406.50 0.00890
1406.60 0.00889
1406.70 0.00888
1406.80 0.00887
1406.90 0.00886
1407.00 0.00885
1407.10 0.00884
1407.20 0.00883
1407.30 0.00882
1407.40 0.00881
1407.50 0.00880
1407.60 0.00879
1407.70 0.00878
1407.80 0.00877
1407.90 0.00876
1408.00 0.00875
1408.10 0.00874
1408.20 0.00873
1408.30 0.00872
1408.40 0.00871
1408.50 0.00870
1408.60 0.00869
1408.70 0.00867
1408.80 0.00866
1408.90 0.00865
1409.00 0.00864
1409.10 0.00863
1409.20 0.00862
1409.30 0.00861
1409.40 0.00860
1409.50 0.00859
1409.60 0.00858
1409.70 0.00857
1409.80 0.00856
1409.90 0.00855
1410.00 0.00854
1410.10 0.00853
1410.20 0.00852
1410.30 0.00851
1410.40 0.00850
1410.50 0.00849
1410.60 0.00848
1410.70 0.00846
1410.80 0.00845
1410.90 0.00844
1411.00 0.00843
1411.10 0.00842
1411.20 0.00841
1411.30 0.00840
1411.40 0.00839
1411.50 0.00838
1411.60 0.00837
1411.70 0.00836
1411.80 0.00835
1411.90 0.00834
1412.00 0.00833
1412.10 0.00831
1412.20 0.00830
1412.30 0.00829
1412.40 0.00828
1412.50 0.00827
1412.60 0.00826
1412.70 0.00825
1412.80 0.00824
1412.90 0.00823
1413.00 0.00822
1413.10 0.00821
1413.20 0.00819
1413.30 0.00818
1413.40 0.00817
1413.50 0.00816
1413.60 0.00815
1413.70 0.00814
1413.80 0.00813
1413.90 0.00812
1414.00 0.00811
1414.10 0.00810
1414.20 0.00808
1414.30 0.00807
1414.40 0.00806
1414.50 0.00805
1414.60 0.00804
1414.70 0.00803
1414.80 0.00802
1414.90 0.00801
1415.00 0.00800
1415.10 0.00798
1415.20 0.00797
1415.30 0.00796
1415.40 0.00795
1415.50 0.00794
1415.60 0.00793
1415.70 0.00792
1415.80 0.00791
1415.90 0.00789
1416.00 0.00788
1416.10 0.00787
1416.20 0.00786
1416.30 0.00785
1416.40 0.00784
1416.50 0.00783
1416.60 0.00782
1416.70 0.00780
1416.80 0.00779
1416.90 0.00778
1417.00 0.00777
1417.10 0.00776
1417.20 0.00775
1417.30 0.00774
1417.40 0.00772
1417.50 0.00771
1417.60 0.00770
1417.70 0.00769
1417.80 0.00768
1417.90 0.00767
1418.00 0.00766
1418.10 0.00764
1418.20 0.00763
1418.30 0.00762
1418.40 0.00761
1418.50 0.00760
1418.60 0.00759
1418.70 0.00758
1418.80 0.00756
1418.90 0.00755
1419.00 0.00754
1419.10 0.00753
1419.20 0.00752
1419.30 0.00751
1419.40 0.00749
1419.50 0.00748
1419.60 0.00747
1419.70 0.00746
1419.80 0.00745
1419.90 0.00744
1420.00 0.00743
1420.10 0.00741
1420.20 0.00740
1420.30 0.00739
1420.40 0.00738
1420.50 0.00737
1420.60 0.00736
1420.70 0.00734
1420.80 0.00733
1420.90 0.00732
1421.00 0.00731
1421.10 0.00730
1421.20 0.00729
1421.30 0.00727
1421.40 0.00726
1421.50 0.00725
1421.60 0.00724
1421.70 0.00723
1421.80 0.00722
1421.90 0.00720
1422.00 0.00719
1422.10 0.00718
1422.20 0.00717
1422.30 0.00716
1422.40 0.00715
1422.50 0.00713
1422.60 0.00712
1422.70 0.00711
1422.80 0.00710
1422.90 0.00709
1423.00 0.00708
1423.10 0.00706
1423.20 0.00705
1423.30 0.00704
1423.40 0.00703
1423.50 0.00702
1423.60 0.00701
1423.70 0.00699
1423.80 0.00698
1423.90 0.00697
1424.00 0.00696
1424.10 0.00695
1424.20 0.00694
1424.30 0.00692
1424.40 0.00691
1424.50 0.00690
1424.60 0.00689
1424.70 0.00688
1424.80 0.00687
1424.90 0.00685
1425.00 0.00684
1425.10 0.00683
1425.20 0.00682
1425.30 0.00681
1425.40 0.00679
1425.50 0.00678
1425.60 0.00677
1425.70 0.00676
1425.80 0.00675
1425.90 0.00674
1426.00 0.00672
1426.10 0.00671
1426.20 0.00670
1426.30 0.00669
1426.40 0.00668
1426.50 0.00667
1426.60 0.00665
1426.70 0.00664
1426.80 0.00663
1426.90 0.00662
1427.00 0.00661
1427.10 0.00660
1427.20 0.00658
1427.30 0.00657
1427.40 0.00656
1427.50 0.00655
1427.60 0.00654
1427.70 0.00653
1427.80 0.00651
1427.90 0.00650
1428.00 0.00649
1428.10 0.00648
1428.20 0.00647
1428.30 0.00646
1428.40 0.00644
1428.50 0.00643
1428.60 0.00642
1428.70 0.00641
1428.80 0.00640
1428.90 0.00639
1429.00 0.00638
1429.10 0.00636
1429.20 0.00635
1429.30 0.00634
1429.40 0.00633
1429.50 0.00632
1429.60 0.00631
1429.70 0.00629
1429.80 0.00628
1429.90 0.00627
1430.00 0.00626
1430.10 0.00625
1430.20 0.00624
1430.30 0.00623
1430.40 0.00621
1430.50 0.00620
1430.60 0.00619
1430.70 0.00618
1430.80 0.00617
1430.90 0.00616
1431.00 0.00615
1431.10 0.00613
1431.20 0.00612
1431.30 0.00611
1431.40 0.00610
1431.50 0.00609
1431.60 0.00608
1431.70 0.00607
1431.80 0.00605
1431.90 0.00604
1432.00 0.00603
1432.10 0.00602
1432.20 0.00601
1432.30 0.00600
1432.40 0.00599
1432.50 0.00598
1432.60 0.00596
1432.70 0.00595
1432.80 0.00594
1432.90 0.00593
1433.00 0.00592
1433.10 0.00591
1433.20 0.00590
1433.30 0.00589
1433.40 0.00587
1433.50 0.00586
1433.60 0.00585
1433.70 0.00584
1433.80 0.00583
1433.90 0.00582
1434.00 0.00581
1434.10 0.00580
1434.20 0.00579
1434.30 0.00578
1434.40 0.00576
1434.50 0.00575
1434.60 0.00574
1434.70 0.00573
1434.80 0.00572
1434.90 0.00571
1435.00 0.00570
1435.10 0.00569
1435.20 0.00568
1435.30 0.00567
1435.40 0.00566
1435.50 0.00564
1435.60 0.00563
1435.70 0.00562
1435.80 0.00561
1435.90 0.00560
1436.00 0.00559
1436.10 0.00558
1436.20 0.00557
1436.30 0.00556
1436.40 0.00555
1436.50 0.00554
1436.60 0.00553
1436.70 0.00552
1436.80 0.00551
1436.90 0.00550
1437.00 0.00548
1437.10 0.00547
1437.20 0.00546
1437.30 0.00545
1437.40 0.00544
1437.50 0.00543
1437.60 0.00542
1437.70 0.00541
1437.80 0.00540
1437.90 0.00539
1438.00 0.00538
1438.10 0.00537
1438.20 0.00536
1438.30 0.00535
1438.40 0.00534
1438.50 0.00533
1438.60 0.00532
1438.70 0.00531
1438.80 0.00530
1438.90 0.00529
1439.00 0.00528
1439.10 0.00527
1439.20 0.00526
1439.30 0.00525
1439.40 0.00524
1439.50 0.00523
1439.60 0.00522
1439.70 0.00521
1439.80 0.00520
1439.90 0.00519
1440.00 0.00518
1440.10 0.00517
1440.20 0.00516
1440.30 0.00515
1440.40 0.00514
1440.50 0.00513
1440.60 0.00512
1440.70 0.00511
1440.80 0.00510
1440.90 0.00509
1441.00 0.00508
1441.10 0.00507
1441.20 0.00506
1441.30 0.00505
1441.40 0.00504
1441.50 0.00503
1441.60 0.00502
1441.70 0.00501
1441.80 0.00500
1441.90 0.00499
1442.00 0.00498
1442.10 0.00498
1442.20 0.00497
1442.30 0.00496
1442.40 0.00495
1442.50 0.00494
1442.60 0.00493
1442.70 0.00492
1442.80 0.00491
1442.90 0.00490
1443.00 0.00489
1443.10 0.00488
1443.20 0.00487
1443.30 0.00486
1443.40 0.00486
1443.50 0.00485
1443.60 0.00484
1443.70 0.00483
1443.80 0.00482
1443.90 0.00481
1444.00 0.00480
1444.10 0.00479
1444.20 0.00478
1444.30 0.00478
1444.40 0.00477
1444.50 0.00476
1444.60 0.00475
1444.70 0.00474
1444.80 0.00473
1444.90 0.00472
1445.00 0.00471
1445.10 0.00471
1445.20 0.00470
1445.30 0.00469
1445.40 0.00468
1445.50 0.00467
1445.60 0.00466
1445.70 0.00466
1445.80 0.00465
1445.90 0.00464
1446.00 0.00463
1446.10 0.00462
1446.20 0.00461
1446.30 0.00461
1446.40 0.00460
1446.50 0.00459
1446.60 0.00458
1446.70 0.00457
1446.80 0.00456
1446.90 0.00456
1447.00 0.00455
1447.10 0.00454
1447.20 0.00453
1447.30 0.00453
1447.40 0.00452
1447.50 0.00451
1447.60 0.00450
1447.70 0.00449
1447.80 0.00449
1447.90 0.00448
1448.00 0.00447
1448.10 0.00446
1448.20 0.00446
1448.30 0.00445
1448.40 0.00444
1448.50 0.00443
1448.60 0.00443
1448.70 0.00442
1448.80 0.00441
1448.90 0.00440
1449.00 0.00440
1449.10 0.00439
1449.20 0.00438
1449.30 0.00437
1449.40 0.00437
1449.50 0.00436
1449.60 0.00435
1449.70 0.00434
1449.80 0.00434
1449.90 0.00433
1450.00 0.00432
1450.10 0.00432
1450.20 0.00431
1450.30 0.00430
1450.40 0.00430
1450.50 0.00429
1450.60 0.00428
1450.70 0.00428
1450.80 0.00427
1450.90 0.00426
1451.00 0.00426
1451.10 0.00425
1451.20 0.00424
1451.30 0.00424
1451.40 0.00423
1451.50 0.00422
1451.60 0.00422
1451.70 0.00421
1451.80 0.00420
1451.90 0.00420
1452.00 0.00419
1452.10 0.00418
1452.20 0.00418
1452.30 0.00417
1452.40 0.00416
1452.50 0.00416
1452.60 0.00415
1452.70 0.00415
1452.80 0.00414
1452.90 0.00413
1453.00 0.00413
1453.10 0.00412
1453.20 0.00412
1453.30 0.00411
1453.40 0.00410
1453.50 0.00410
1453.60 0.00409
1453.70 0.00409
1453.80 0.00408
1453.90 0.00407
1454.00 0.00407
1454.10 0.00406
1454.20 0.00406
1454.30 0.00405
1454.40 0.00405
1454.50 0.00404
1454.60 0.00404
1454.70 0.00403
1454.80 0.00402
1454.90 0.00402
1455.00 0.00401
1455.10 0.00401
1455.20 0.00400
1455.30 0.00400
1455.40 0.00399
1455.50 0.00399
1455.60 0.00398
1455.70 0.00398
1455.80 0.00397
1455.90 0.00397
1456.00 0.00396
1456.10 0.00396
1456.20 0.00395
1456.30 0.00395
1456.40 0.00394
1456.50 0.00394
1456.60 0.00393
1456.70 0.00393
1456.80 0.00392
1456.90 0.00392
1457.00 0.00391
1457.10 0.00391
1457.20 0.00390
1457.30 0.00390
1457.40 0.00389
1457.50 0.00389
1457.60 0.00389
1457.70 0.00388
1457.80 0.00388
1457.90 0.00387
1458.00 0.00387
1458.10 0.00386
1458.20 0.00386
1458.30 0.00385
1458.40 0.00385
1458.50 0.00385
1458.60 0.00384
1458.70 0.00384
1458.80 0.00383
1458.90 0.00383
1459.00 0.00383
1459.10 0.00382
1459.20 0.00382
1459.30 0.00381
1459.40 0.00381
1459.50 0.00381
1459.60 0.00380
1459.70 0.00380
1459.80 0.00379
1459.90 0.00379
1460.00 0.00379
1460.10 0.00378
1460.20 0.00378
1460.30 0.00378
1460.40 0.00377
1460.50 0.00377
1460.60 0.00376
1460.70 0.00376
1460.80 0.00376
1460.90 0.00375
1461.00 0.00375
1461.10 0.00375
1461.20 0.00374
1461.30 0.00374
1461.40 0.00374
1461.50 0.00373
1461.60 0.00373
1461.70 0.00373
1461.80 0.00372
1461.90 0.00372
1462.00 0.00372
1462.10 0.00371
1462.20 0.00371
1462.30 0.00371
1462.40 0.00370
1462.50 0.00370
1462.60 0.00370
1462.70 0.00370
1462.80 0.00369
1462.90 0.00369
1463.00 0.00369
1463.10 0.00368
1463.20 0.00368
1463.30 0.00368
1463.40 0.00368
1463.50 0.00367
1463.60 0.00367
1463.70 0.00367
1463.80 0.00367
1463.90 0.00366
1464.00 0.00366
1464.10 0.00366
1464.20 0.00365
1464.30 0.00365
1464.40 0.00365
1464.50 0.00365
1464.60 0.00364
1464.70 0.00364
1464.80 0.00364
1464.90 0.00364
1465.00 0.00364
1465.10 0.00363
1465.20 0.00363
1465.30 0.00363
1465.40 0.00363
1465.50 0.00362
1465.60 0.00362
1465.70 0.00362
1465.80 0.00362
1465.90 0.00362
1466.00 0.00361
1466.10 0.00361
1466.20 0.00361
1466.30 0.00361
1466.40 0.00361
1466.50 0.00360
1466.60 0.00360
1466.70 0.00360
1466.80 0.00360
1466.90 0.00360
1467.00 0.00359
1467.10 0.00359
1467.20 0.00359
1467.30 0.00359
1467.40 0.00359
1467.50 0.00358
1467.60 0.00358
1467.70 0.00358
1467.80 0.00358
1467.90 0.00358
1468.00 0.00358
1468.10 0.00357
1468.20 0.00357
1468.30 0.00357
1468.40 0.00357
1468.50 0.00357
1468.60 0.00357
1468.70 0.00357
1468.80 0.00356
1468.90 0.00356
1469.00 0.00356
1469.10 0.00356
1469.20 0.00356
1469.30 0.00356
1469.40 0.00356
1469.50 0.00355
1469.60 0.00355
1469.70 0.00355
1469.80 0.00355
1469.90 0.00355
1470.00 0.00355
1470.10 0.00355
1470.20 0.00355
1470.30 0.00355
1470.40 0.00354
1470.50 0.00354
1470.60 0.00354
1470.70 0.00354
1470.80 0.00354
1470.90 0.00354
1471.00 0.00354
1471.10 0.00354
1471.20 0.00354
1471.30 0.00353
1471.40 0.00353
1471.50 0.00353
1471.60 0.00353
1471.70 0.00353
1471.80 0.00353
1471.90 0.00353
1472.00 0.00353
1472.10 0.00353
1472.20 0.00353
1472.30 0.00353
1472.40 0.00352
1472.50 0.00352
1472.60 0.00352
1472.70 0.00352
1472.80 0.00352
1472.90 0.00352
1473.00 0.00352
1473.10 0.00352
1473.20 0.00352
1473.30 0.00352
1473.40 0.00352
1473.50 0.00352
1473.60 0.00352
1473.70 0.00352
1473.80 0.00351
1473.90 0.00351
1474.00 0.00351
1474.10 0.00351
1474.20 0.00351
1474.30 0.00351
1474.40 0.00351
1474.50 0.00351
1474.60 0.00351
1474.70 0.00351
1474.80 0.00351
1474.90 0.00351
1475.00 0.00351
1475.10 0.00351
1475.20 0.00351
1475.30 0.00351
1475.40 0.00351
1475.50 0.00351
1475.60 0.00351
1475.70 0.00351
1475.80 0.00350
1475.90 0.00350
1476.00 0.00350
1476.10 0.00350
1476.20 0.00350
1476.30 0.00350
1476.40 0.00350
1476.50 0.00350
1476.60 0.00350
1476.70 0.00350
1476.80 0.00350
1476.90 0.00350
1477.00 0.00350
1477.10 0.00350
1477.20 0.00350
1477.30 0.00350
1477.40 0.00350
1477.50 0.00350
1477.60 0.00350
1477.70 0.00350
1477.80 0.00350
1477.90 0.00350
1478.00 0.00350
1478.10 0.00350
1478.20 0.00350
1478.30 0.00350
1478.40 0.00350
1478.50 0.00350
1478.60 0.00350
1478.70 0.00350
1478.80 0.00350
1478.90 0.00350
1479.00 0.00350
1479.10 0.00349
1479.20 0.00349
1479.30 0.00349
1479.40 0.00349
1479.50 0.00349
1479.60 0.00349
1479.70 0.00349
1479.80 0.00349
1479.90 0.00349
1480.00 0.00349
1480.10 0.00349
1480.20 0.00349
1480.30 0.00349
1480.40 0.00349
1480.50 0.00349
1480.60 0.00349
1480.70 0.00349
1480.80 0.00349
1480.90 0.00349
1481.00 0.00349
1481.10 0.00349
1481.20 0.00349
1481.30 0.00349
1481.40 0.00349
1481.50 0.00349
1481.60 0.00349
1481.70 0.00349
1481.80 0.00349
1481.90 0.00349
1482.00 0.00349
1482.10 0.00349
1482.20 0.00349
1482.30 0.00349
1482.40 0.00349
1482.50 0.00349
1482.60 0.00349
1482.70 0.00349
1482.80 0.00349
1482.90 0.00349
1483.00 0.00349
1483.10 0.00349
1483.20 0.00349
1483.30 0.00349
1483.40 0.00349
1483.50 0.00349
1483.60 0.00349
1483.70 0.00349
1483.80 0.00349
1483.90 0.00349
1484.00 0.00349
1484.10 0.00348
1484.20 0.00348
1484.30 0.00348
1484.40 0.00348
1484.50 0.00348
1484.60 0.00348
1484.70 0.00348
1484.80 0.00348
1484.90 0.00348
1485.00 0.00348
1485.10 0.00348
1485.20 0.00348
1485.30 0.00348
1485.40 0.00348
1485.50 0.00348
1485.60 0.00348
1485.70 0.00348
1485.80 0.00348
1485.90 0.00348
1486.00 0.00348
1486.10 0.00348
1486.20 0.00348
1486.30 0.00348
1486.40 0.00348
1486.50 0.00348
1486.60 0.00348
1486.70 0.00348
1486.80 0.00348
1486.90 0.00347
1487.00 0.00347
1487.10 0.00347
1487.20 0.00347
1487.30 0.00347
1487.40 0.00347
1487.50 0.00347
1487.60 0.00347
1487.70 0.00347
1487.80 0.00347
1487.90 0.00347
1488.00 0.00347
1488.10 0.00347
1488.20 0.00347
1488.30 0.00347
1488.40 0.00347
1488.50 0.00347
1488.60 0.00347
1488.70 0.00346
1488.80 0.00346
1488.90 0.00346
1489.00 0.00346
1489.10 0.00346
1489.20 0.00346
1489.30 0.00346
1489.40 0.00346
1489.50 0.00346
1489.60 0.00346
1489.70 0.00346
1489.80 0.00346
1489.90 0.00346
1490.00 0.00346
1490.10 0.00345
1490.20 0.00345
1490.30 0.00345
1490.40 0.00345
1490.50 0.00345
1490.60 0.00345
1490.70 0.00345
1490.80 0.00345
1490.90 0.00345
1491.00 0.00345
1491.10 0.00345
1491.20 0.00344
1491.30 0.00344
1491.40 0.00344
1491.50 0.00344
1491.60 0.00344
1491.70 0.00344
1491.80 0.00344
1491.90 0.00344
1492.00 0.00344
1492.10 0.00344
1492.20 0.00343
1492.30 0.00343
1492.40 0.00343
1492.50 0.00343
1492.60 0.00343
1492.70 0.00343
1492.80 0.00343
1492.90 0.00343
1493.00 0.00342
1493.10 0.00342
1493.20 0.00342
1493.30 0.00342
1493.40 0.00342
1493.50 0.00342
1493.60 0.00342
1493.70 0.00342
1493.80 0.00341
1493.90 0.00341
1494.00 0.00341
1494.10 0.00341
1494.20 0.00341
1494.30 0.00341
1494.40 0.00341
1494.50 0.00340
1494.60 0.00340
1494.70 0.00340
1494.80 0.00340
1494.90 0.00340
1495.00 0.00340
1495.10 0.00339
1495.20 0.00339
1495.30 0.00339
1495.40 0.00339
1495.50 0.00339
1495.60 0.00339
1495.70 0.00339
1495.80 0.00338
1495.90 0.00338
1496.00 0.00338
1496.10 0.00338
1496.20 0.00338
1496.30 0.00337
1496.40 0.00337
1496.50 0.00337
1496.60 0.00337
1496.70 0.00337
1496.80 0.00337
1496.90 0.00336
1497.00 0.00336
1497.10 0.00336
1497.20 0.00336
1497.30 0.00336
1497.40 0.00335
1497.50 0.00335
1497.60 0.00335
1497.70 0.00335
1497.80 0.00335
1497.90 0.00334
1498.00 0.00334
1498.10 0.00334
1498.20 0.00334
1498.30 0.00333
1498.40 0.00333
1498.50 0.00333
1498.60 0.00333
1498.70 0.00333
1498.80 0.00332
1498.90 0.00332
1499.00 0.00332
1499.10 0.00332
1499.20 0.00331
1499.30 0.00331
1499.40 0.00331
1499.50 0.00331
1499.60 0.00331
1499.70 0.00330
1499.80 0.00330
1499.90 0.00330
1500.00 0.00330
1500.10 0.00329
1500.20 0.00329
1500.30 0.00329
1500.40 0.00329
1500.50 0.00328
1500.60 0.00328
1500.70 0.00328
1500.80 0.00327
1500.90 0.00327
1501.00 0.00327
1501.10 0.00327
1501.20 0.00326
1501.30 0.00326
1501.40 0.00326
1501.50 0.00326
1501.60 0.00325
1501.70 0.00325
1501.80 0.00325
1501.90 0.00324
1502.00 0.00324
1502.10 0.00324
1502.20 0.00324
1502.30 0.00323
1502.40 0.00323
1502.50 0.00323
1502.60 0.00322
1502.70 0.00322
1502.80 0.00322
1502.90 0.00321
1503.00 0.00321
1503.10 0.00321
1503.20 0.00321
1503.30 0.00320
1503.40 0.00320
1503.50 0.00320
1503.60 0.00319
1503.70 0.00319
1503.80 0.00319
1503.90 0.00318
1504.00 0.00318
1504.10 0.00318
1504.20 0.00317
1504.30 0.00317
1504.40 0.00317
1504.50 0.00316
1504.60 0.00316
1504.70 0.00316
1504.80 0.00315
1504.90 0.00315
1505.00 0.00315
1505.10 0.00314
1505.20 0.00314
1505.30 0.00314
1505.40 0.00313
1505.50 0.00313
1505.60 0.00313
1505.70 0.00312
1505.80 0.00312
1505.90 0.00311
1506.00 0.00311
1506.10 0.00311
1506.20 0.00310
1506.30 0.00310
1506.40 0.00310
1506.50 0.00309
1506.60 0.00309
1506.70 0.00309
1506.80 0.00308
1506.90 0.00308
1507.00 0.00307
1507.10 0.00307
1507.20 0.00307
1507.30 0.00306
1507.40 0.00306
1507.50 0.00305
1507.60 0.00305
1507.70 0.00305
1507.80 0.00304
1507.90 0.00304
1508.00 0.00304
1508.10 0.00303
1508.20 0.00303
1508.30 0.00302
1508.40 0.00302
1508.50 0.00301
1508.60 0.00301
1508.70 0.00301
1508.80 0.00300
1508.90 0.00300
1509.00 0.00299
1509.10 0.00299
1509.20 0.00299
1509.30 0.00298
1509.40 0.00298
1509.50 0.00297
1509.60 0.00297
1509.70 0.00296
1509.80 0.00296
1509.90 0.00296
1510.00 0.00295
1510.10 0.00295
1510.20 0.00294
1510.30 0.00294
1510.40 0.00293
1510.50 0.00293
1510.60 0.00293
1510.70 0.00292
1510.80 0.00292
1510.90 0.00291
1511.00 0.00291
1511.10 0.00290
1511.20 0.00290
1511.30 0.00289
1511.40 0.00289
1511.50 0.00289
1511.60 0.00288
1511.70 0.00288
1511.80 0.00287
1511.90 0.00287
1512.00 0.00286
1512.10 0.00286
1512.20 0.00285
1512.30 0.00285
1512.40 0.00284
1512.50 0.00284
1512.60 0.00283
1512.70 0.00283
1512.80 0.00282
1512.90 0.00282
1513.00 0.00281
1513.10 0.00281
1513.20 0.00281
1513.30 0.00280
1513.40 0.00280
1513.50 0.00279
1513.60 0.00279
1513.70 0.00278
1513.80 0.00278
1513.90 0.00277
1514.00 0.00277
1514.10 0.00276
1514.20 0.00276
1514.30 0.00275
1514.40 0.00275
1514.50 0.00274
1514.60 0.00274
1514.70 0.00273
1514.80 0.00273
1514.90 0.00272
1515.00 0.00272
1515.10 0.00271
1515.20 0.00271
1515.30 0.00270
1515.40 0.00270
1515.50 0.00269
1515.60 0.00269
1515.70 0.00268
1515.80 0.00268
1515.90 0.00267
1516.00 0.00267
1516.10 0.00266
1516.20 0.00266
1516.30 0.00265
1516.40 0.00264
1516.50 0.00264
1516.60 0.00263
1516.70 0.00263
1516.80 0.00262
1516.90 0.00262
1517.00 0.00261
1517.10 0.00261
1517.20 0.00260
1517.30 0.00260
1517.40 0.00259
1517.50 0.00259
1517.60 0.00258
1517.70 0.00258
1517.80 0.00257
1517.90 0.00257
1518.00 0.00256
1518.10 0.00255
1518.20 0.00255
1518.30 0.00254
1518.40 0.00254
1518.50 0.00253
1518.60 0.00253
1518.70 0.00252
1518.80 0.00252
1518.90 0.00251
1519.00 0.00251
1519.10 0.00250
1519.20 0.00249
1519.30 0.00249
1519.40 0.00248
1519.50 0.00248
1519.60 0.00247
1519.70 0.00247
1519.80 0.00246
1519.90 0.00246
1520.00 0.00245
1520.10 0.00244
1520.20 0.00244
1520.30 0.00243
1520.40 0.00243
1520.50 0.00242
1520.60 0.00242
1520.70 0.00241
1520.80 0.00241
1520.90 0.00240
1521.00 0.00239
1521.10 0.00239
1521.20 0.00238
1521.30 0.00238
1521.40 0.00237
1521.50 0.00237
1521.60 0.00236
1521.70 0.00236
1521.80 0.00235
1521.90 0.00234
1522.00 0.00234
1522.10 0.00233
1522.20 0.00233
1522.30 0.00232
1522.40 0.00232
1522.50 0.00231
1522.60 0.00230
1522.70 0.00230
1522.80 0.00229
1522.90 0.00229
1523.00 0.00228
1523.10 0.00228
1523.20 0.00227
1523.30 0.00226
1523.40 0.00226
1523.50 0.00225
1523.60 0.00225
1523.70 0.00224
1523.80 0.00224
1523.90 0.00223
1524.00 0.00222
1524.10 0.00222
1524.20 0.00221
1524.30 0.00221
1524.40 0.00220
1524.50 0.00219
1524.60 0.00219
1524.70 0.00218
1524.80 0.00218
1524.90 0.00217
1525.00 0.00217
1525.10 0.00216
1525.20 0.00215
1525.30 0.00215
1525.40 0.00214
1525.50 0.00214
1525.60 0.00213
1525.70 0.00212
1525.80 0.00212
1525.90 0.00211
1526.00 0.00211
1526.10 0.00210
1526.20 0.00210
1526.30 0.00209
1526.40 0.00208
1526.50 0.00208
1526.60 0.00207
1526.70 0.00207
1526.80 0.00206
1526.90 0.00206
1527.00 0.00205
1527.10 0.00204
1527.20 0.00204
1527.30 0.00203
1527.40 0.00203
1527.50 0.00202
1527.60 0.00201
1527.70 0.00201
1527.80 0.00200
1527.90 0.00200
1528.00 0.00199
1528.10 0.00199
1528.20 0.00198
1528.30 0.00197
1528.40 0.00197
1528.50 0.00196
1528.60 0.00196
1528.70 0.00195
1528.80 0.00194
1528.90 0.00194
1529.00 0.00193
1529.10 0.00193
1529.20 0.00192
1529.30 0.00192
1529.40 0.00191
1529.50 0.00190
1529.60 0.00190
1529.70 0.00189
1529.80 0.00189
1529.90 0.00188
1530.00 0.00187
1530.10 0.00187
1530.20 0.00186
1530.30 0.00186
1530.40 0.00185
1530.50 0.00185
1530.60 0.00184
1530.70 0.00183
1530.80 0.00183
1530.90 0.00182
1531.00 0.00182
1531.10 0.00181
1531.20 0.00180
1531.30 0.00180
1531.40 0.00179
1531.50 0.00179
1531.60 0.00178
1531.70 0.00178
1531.80 0.00177
1531.90 0.00176
1532.00 0.00176
1532.10 0.00175
1532.20 0.00175
1532.30 0.00174
1532.40 0.00174
1532.50 0.00173
1532.60 0.00172
1532.70 0.00172
1532.80 0.00171
1532.90 0.00171
1533.00 0.00170
1533.10 0.00170
1533.20 0.00169
1533.30 0.00168
1533.40 0.00168
1533.50 0.00167
1533.60 0.00167
1533.70 0.00166
1533.80 0.00166
1533.90 0.00165
1534.00 0.00164
1534.10 0.00164
1534.20 0.00163
1534.30 0.00163
1534.40 0.00162
1534.50 0.00162
1534.60 0.00161
1534.70 0.00161
1534.80 0.00160
1534.90 0.00159
1535.00 0.00159
1535.10 0.00158
1535.20 0.00158
1535.30 0.00157
1535.40 0.00157
1535.50 0.00156
1535.60 0.00156
1535.70 0.00155
1535.80 0.00154
1535.90 0.00154
1536.00 0.00153
1536.10 0.00153
1536.20 0.00152
1536.30 0.00152
1536.40 0.00151
1536.50 0.00151
1536.60 0.00150
1536.70 0.00149
1536.80 0.00149
1536.90 0.00148
1537.00 0.00148
1537.10 0.00147
1537.20 0.00147
1537.30 0.00146
1537.40 0.00146
1537.50 0.00145
1537.60 0.00145
1537.70 0.00144
1537.80 0.00143
1537.90 0.00143
1538.00 0.00142
1538.10 0.00142
1538.20 0.00141
1538.30 0.00141
1538.40 0.00140
1538.50 0.00140
1538.60 0.00139
1538.70 0.00139
1538.80 0.00138
1538.90 0.00138
1539.00 0.00137
1539.10 0.00137
1539.20 0.00136
1539.30 0.00135
1539.40 0.00135
1539.50 0.00134
1539.60 0.00134
1539.70 0.00133
1539.80 0.00133
1539.90 0.00132
1540.00 0.00132
1540.10 0.00131
1540.20 0.00131
1540.30 0.00130
1540.40 0.00130
1540.50 0.00129
1540.60 0.00129
1540.70 0.00128
1540.80 0.00128
1540.90 0.00127
1541.00 0.00127
1541.10 0.00126
1541.20 0.00126
1541.30 0.00125
1541.40 0.00125
1541.50 0.00124
1541.60 0.00124
1541.70 0.00123
1541.80 0.00123
1541.90 0.00122
1542.00 0.00122
1542.10 0.00121
1542.20 0.00121
1542.30 0.00120
1542.40 0.00120
1542.50 0.00119
1542.60 0.00119
1542.70 0.00118
1542.80 0.00118
1542.90 0.00117
1543.00 0.00117
1543.10 0.00116
1543.20 0.00116
1543.30 0.00115
1543.40 0.00115
1543.50 0.00114
1543.60 0.00114
1543.70 0.00113
1543.80 0.00113
1543.90 0.00112
1544.00 0.00112
1544.10 0.00111
1544.20 0.00111
1544.30 0.00110
1544.40 0.00110
1544.50 0.00109
1544.60 0.00109
1544.70 0.00109
1544.80 0.00108
1544.90 0.00108
1545.00 0.00107
1545.10 0.00107
1545.20 0.00106
1545.30 0.00106
1545.40 0.00105
1545.50 0.00105
1545.60 0.00104
1545.70 0.00104
1545.80 0.00103
1545.90 0.00103
1546.00 0.00102
1546.10 0.00102
1546.20 0.00102
1546.30 0.00101
1546.40 0.00101
1546.50 0.00100
1546.60 0.00100
1546.70 0.00099
1546.80 0.00099
1546.90 0.00098
1547.00 0.00098
1547.10 0.00098
1547.20 0.00097
1547.30 0.00097
1547.40 0.00096
1547.50 0.00096
1547.60 0.00095
1547.70 0.00095
1547.80 0.00094
1547.90 0.00094
1548.00 0.00094
1548.10 0.00093
1548.20 0.00093
1548.30 0.00092
1548.40 0.00092
1548.50 0.00091
1548.60 0.00091
1548.70 0.00091
1548.80 0.00090
1548.90 0.00090
1549.00 0.00089
1549.10 0.00089
1549.20 0.00089
1549.30 0.00088
1549.40 0.00088
1549.50 0.00087
1549.60 0.00087
1549.70 0.00086
1549.80 0.00086
1549.90 0.00086
1550.00 0.00085
1550.10 0.00085
1550.20 0.00084
1550.30 0.00084
1550.40 0.00084
1550.50 0.00083
1550.60 0.00083
1550.70 0.00082
1550.80 0.00082
1550.90 0.00082
1551.00 0.00081
1551.10 0.00081
1551.20 0.00080
1551.30 0.00080
1551.40 0.00080
1551.50 0.00079
1551.60 0.00079
1551.70 0.00078
1551.80 0.00078
1551.90 0.00078
1552.00 0.00077
1552.10 0.00077
1552.20 0.00077
1552.30 0.00076
1552.40 0.00076
1552.50 0.00075
1552.60 0.00075
1552.70 0.00075
1552.80 0.00074
1552.90 0.00074
1553.00 0.00074
1553.10 0.00073
1553.20 0.00073
1553.30 0.00072
1553.40 0.00072
1553.50 0.00072
1553.60 0.00071
1553.70 0.00071
1553.80 0.00071
1553.90 0.00070
1554.00 0.00070
1554.10 0.00070
1554.20 0.00069
1554.30 0.00069
1554.40 0.00068
1554.50 0.00068
1554.60 0.00068
1554.70 0.00067
1554.80 0.00067
1554.90 0.00067
1555.00 0.00066
1555.10 0.00066
1555.20 0.00066
1555.30 0.00065
1555.40 0.00065
1555.50 0.00065
1555.60 0.00064
1555.70 0.00064
1555.80 0.00064
1555.90 0.00063
1556.00 0.00063
1556.10 0.00063
1556.20 0.00062
1556.30 0.00062
1556.40 0.00062
1556.50 0.00061
1556.60 0.00061
1556.70 0.00061
1556.80 0.00060
1556.90 0.00060
1557.00 0.00060
1557.10 0.00059
1557.20 0.00059
1557.30 0.00059
1557.40 0.00058
1557.50 0.00058
1557.60 0.00058
1557.70 0.00058
1557.80 0.00057
1557.90 0.00057
1558.00 0.00057
1558.10 0.00056
1558.20 0.00056
1558.30 0.00056
1558.40 0.00055
1558.50 0.00055
1558.60 0.00055
1558.70 0.00054
1558.80 0.00054
1558.90 0.00054
1559.00 0.00054
1559.10 0.00053
1559.20 0.00053
1559.30 0.00053
1559.40 0.00052
1559.50 0.00052
1559.60 0.00052
1559.70 0.00052
1559.80 0.00051
1559.90 0.00051
1560.00 0.00051
1560.10 0.00050
1560.20 0.00050
1560.30 0.00050
1560.40 0.00050
1560.50 0.00049
1560.60 0.00049
1560.70 0.00049
1560.80 0.00048
1560.90 0.00048
1561.00 0.00048
1561.10 0.00048
1561.20 0.00047
1561.30 0.00047
1561.40 0.00047
1561.50 0.00047
1561.60 0.00046
1561.70 0.00046
1561.80 0.00046
1561.90 0.00045
1562.00 0.00045
1562.10 0.00045
1562.20 0.00045
1562.30 0.00044
1562.40 0.00044
1562.50 0.00044
1562.60 0.00044
1562.70 0.00043
1562.80 0.00043
1562.90 0.00043
1563.00 0.00043
1563.10 0.00042
1563.20 0.00042
1563.30 0.00042
1563.40 0.00042
1563.50 0.00041
1563.60 0.00041
1563.70 0.00041
1563.80 0.00041
1563.90 0.00040
1564.00 0.00040
1564.10 0.00040
1564.20 0.00040
1564.30 0.00039
1564.40 0.00039
1564.50 0.00039
1564.60 0.00039
1564.70 0.00039
1564.80 0.00038
1564.90 0.00038
1565.00 0.00038
1565.10 0.00038
1565.20 0.00037
1565.30 0.00037
1565.40 0.00037
1565.50 0.00037
1565.60 0.00036
1565.70 0.00036
1565.80 0.00036
1565.90 0.00036
1566.00 0.00036
1566.10 0.00035
1566.20 0.00035
1566.30 0.00035
1566.40 0.00035
1566.50 0.00035
1566.60 0.00034
1566.70 0.00034
1566.80 0.00034
1566.90 0.00034
1567.00 0.00033
1567.10 0.00033
1567.20 0.00033
1567.30 0.00033
1567.40 0.00033
1567.50 0.00032
1567.60 0.00032
1567.70 0.00032
1567.80 0.00032
1567.90 0.00032
1568.00 0.00031
1568.10 0.00031
1568.20 0.00031
1568.30 0.00031
1568.40 0.00031
1568.50 0.00030
1568.60 0.00030
1568.70 0.00030
1568.80 0.00030
1568.90 0.00030
1569.00 0.00030
1569.10 0.00029
1569.20 0.00029
1569.30 0.00029
1569.40 0.00029
1569.50 0.00029
1569.60 0.00028
1569.70 0.00028
1569.80 0.00028
1569.90 0.00028
1570.00 0.00028
1570.10 0.00028
1570.20 0.00027
1570.30 0.00027
1570.40 0.00027
1570.50 0.00027
1570.60 0.00027
1570.70 0.00026
1570.80 0.00026
1570.90 0.00026
1571.00 0.00026
1571.10 0.00026
1571.20 0.00026
1571.30 0.00025
1571.40 0.00025
1571.50 0.00025
1571.60 0.00025
1571.70 0.00025
1571.80 0.00025
1571.90 0.00024
1572.00 0.00024
1572.10 0.00024
1572.20 0.00024
1572.30 0.00024
1572.40 0.00024
1572.50 0.00023
1572.60 0.00023
1572.70 0.00023
1572.80 0.00023
1572.90 0.00023
1573.00 0.00023
1573.10 0.00023
1573.20 0.00022
1573.30 0.00022
1573.40 0.00022
1573.50 0.00022
1573.60 0.00022
1573.70 0.00022
1573.80 0.00022
1573.90 0.00021
1574.00 0.00021
1574.10 0.00021
1574.20 0.00021
1574.30 0.00021
1574.40 0.00021
1574.50 0.00021
1574.60 0.00020
1574.70 0.00020
1574.80 0.00020
1574.90 0.00020
1575.00 0.00020
1575.10 0.00020
1575.20 0.00020
1575.30 0.00019
1575.40 0.00019
1575.50 0.00019
1575.60 0.00019
1575.70 0.00019
1575.80 0.00019
1575.90 0.00019
1576.00 0.00019
1576.10 0.00018
1576.20 0.00018
1576.30 0.00018
1576.40 0.00018
1576.50 0.00018
1576.60 0.00018
1576.70 0.00018
1576.80 0.00018
1576.90 0.00017
1577.00 0.00017
1577.10 0.00017
1577.20 0.00017
1577.30 0.00017
1577.40 0.00017
1577.50 0.00017
1577.60 0.00017
1577.70 0.00016
1577.80 0.00016
1577.90 0.00016
1578.00 0.00016
1578.10 0.00016
1578.20 0.00016
1578.30 0.00016
1578.40 0.00016
1578.50 0.00016
1578.60 0.00015
1578.70 0.00015
1578.80 0.00015
1578.90 0.00015
1579.00 0.00015
1579.10 0.00015
1579.20 0.00015
1579.30 0.00015
1579.40 0.00015
1579.50 0.00014
1579.60 0.00014
1579.70 0.00014
1579.80 0.00014
1579.90 0.00014
1580.00 0.00014
1580.10 0.00014
1580.20 0.00014
1580.30 0.00014
1580.40 0.00014
1580.50 0.00013
1580.60 0.00013
1580.70 0.00013
1580.80 0.00013
1580.90 0.00013
1581.00 0.00013
1581.10 0.00013
1581.20 0.00013
1581.30 0.00013
1581.40 0.00013
1581.50 0.00012
1581.60 0.00012
1581.70 0.00012
1581.80 0.00012
1581.90 0.00012
1582.00 0.00012
1582.10 0.00012
1582.20 0.00012
1582.30 0.00012
1582.40 0.00012
1582.50 0.00012
1582.60 0.00011
1582.70 0.00011
1582.80 0.00011
1582.90 0.00011
1583.00 0.00011
1583.10 0.00011
1583.20 0.00011
1583.30 0.00011
1583.40 0.00011
1583.50 0.00011
1583.60 0.00011
1583.70 0.00011
1583.80 0.00011
1583.90 0.00010
1584.00 0.00010
1584.10 0.00010
1584.20 0.00010
1584.30 0.00010
1584.40 0.00010
1584.50 0.00010
1584.60 0.00010
1584.70 0.00010
1584.80 0.00010
1584.90 0.00010
1585.00 0.00010
1585.10 0.00010
1585.20 0.00009
1585.30 0.00009
1585.40 0.00009
1585.50 0.00009
1585.60 0.00009
1585.70 0.00009
1585.80 0.00009
1585.90 0.00009
1586.00 0.00009
1586.10 0.00009
1586.20 0.00009
1586.30 0.00009
1586.40 0.00009
1586.50 0.00009
1586.60 0.00008
1586.70 0.00008
1586.80 0.00008
1586.90 0.00008
1587.00 0.00008
1587.10 0.00008
1587.20 0.00008
1587.30 0.00008
1587.40 0.00008
1587.50 0.00008
1587.60 0.00008
1587.70 0.00008
1587.80 0.00008
1587.90 0.00008
1588.00 0.00008
1588.10 0.00008
1588.20 0.00007
1588.30 0.00007
1588.40 0.00007
1588.50 0.00007
1588.60 0.00007
1588.70 0.00007
1588.80 0.00007
1588.90 0.00007
1589.00 0.00007
1589.10 0.00007
1589.20 0.00007
1589.30 0.00007
1589.40 0.00007
1589.50 0.00007
1589.60 0.00007
1589.70 0.00007
1589.80 0.00007
1589.90 0.00007
1590.00 0.00006
1590.10 0.00006
1590.20 0.00006
1590.30 0.00006
1590.40 0.00006
1590.50 0.00006
1590.60 0.00006
1590.70 0.00006
1590.80 0.00006
1590.90 0.00006
1591.00 0.00006
1591.10 0.00006
1591.20 0.00006
1591.30 0.00006
1591.40 0.00006
1591.50 0.00006
1591.60 0.00006
1591.70 0.00006
1591.80 0.00006
1591.90 0.00006
1592.00 0.00005
1592.10 0.00005
1592.20 0.00005
1592.30 0.00005
1592.40 0.00005
1592.50 0.00005
1592.60 0.00005
1592.70 0.00005
1592.80 0.00005
1592.90 0.00005
1593.00 0.00005
1593.10 0.00005
1593.20 0.00005
1593.30 0.00005
1593.40 0.00005
1593.50 0.00005
1593.60 0.00005
1593.70 0.00005
1593.80 0.00005
1593.90 0.00005
1594.00 0.00005
1594.10 0.00005
1594.20 0.00005
1594.30 0.00005
1594.40 0.00004
1594.50 0.00004
1594.60 0.00004
1594.70 0.00004
1594.80 0.00004
1594.90 0.00004
1595.00 0.00004
1595.10 0.00004
1595.20 0.00004
1595.30 0.00004
1595.40 0.00004
1595.50 0.00004
1595.60 0.00004
1595.70 0.00004
1595.80 0.00004
1595.90 0.00004
1596.00 0.00004
1596.10 0.00004
1596.20 0.00004
1596.30 0.00004
1596.40 0.00004
1596.50 0.00004
1596.60 0.00004
1596.70 0.00004
1596.80 0.00004
1596.90 0.00004
1597.00 0.00004
1597.10 0.00004
1597.20 0.00004
1597.30 0.00003
1597.40 0.00003
1597.50 0.00003
1597.60 0.00003
1597.70 0.00003
1597.80 0.00003
1597.90 0.00003
1598.00 0.00003
1598.10 0.00003
1598.20 0.00003
1598.30 0.00003
1598.40 0.00003
1598.50 0.00003
1598.60 0.00003
1598.70 0.00003
1598.80 0.00003
1598.90 0.00003
1599.00 0.00003
1599.10 0.00003
1599.20 0.00003
1599.30 0.00003
1599.40 0.00003
1599.50 0.00003
1599.60 0.00003
1599.70 0.00003
1599.80 0.00003
1599.90 0.00003
1600.00 0.00003
1600.10 0.00003
1600.20 0.00003
1600.30 0.00003
1600.40 0.00003
1600.50 0.00003
1600.60 0.00003
1600.70 0.00003
1600.80 0.00003
1600.90 0.00003
1601.00 0.00003
1601.10 0.00002
1601.20 0.00002
1601.30 0.00002
1601.40 0.00002
1601.50 0.00002
1601.60 0.00002
1601.70 0.00002
1601.80 0.00002
1601.90 0.00002
1602.00 0.00002
1602.10 0.00002
1602.20 0.00002
1602.30 0.00002
1602.40 0.00002
1602.50 0.00002
1602.60 0.00002
1602.70 0.00002
1602.80 0.00002
1602.90 0.00002
1603.00 0.00002
1603.10 0.00002
1603.20 0.00002
1603.30 0.00002
1603.40 0.00002
1603.50 0.00002
1603.60 0.00002
1603.70 0.00002
1603.80 0.00002
1603.90 0.00002
1604.00 0.00002
1604.10 0.00002
1604.20 0.00002
1604.30 0.00002
1604.40 0.00002
1604.50 0.00002
1604.60 0.00002
1604.70 0.00002
1604.80 0.00002
1604.90 0.00002
1605.00 0.00002
1605.10 0.00002
1605.20 0.00002
1605.30 0.00002
1605.40 0.00002
1605.50 0.00002
1605.60 0.00002
1605.70 0.00002
1605.80 0.00002
1605.90 0.00002
1606.00 0.00002
1606.10 0.00002
1606.20 0.00002
1606.30 0.00002
1606.40 0.00002
1606.50 0.00002
1606.60 0.00002
1606.70 0.00001
1606.80 0.00001
1606.90 0.00001
1607.00 0.00001
1607.10 0.00001
1607.20 0.00001
1607.30 0.00001
1607.40 0.00001
1607.50 0.00001
1607.60 0.00001
1607.70 0.00001
1607.80 0.00001
1607.90 0.00001
1608.00 0.00001
1608.10 0.00001
1608.20 0.00001
1608.30 0.00001
1608.40 0.00001
1608.50 0.00001
1608.60 0.00001
1608.70 0.00001
1608.80 0.00001
1608.90 0.00001
1609.00 0.00001
1609.10 0.00001
1609.20 0.00001
1609.30 0.00001
1609.40 0.00001
1609.50 0.00001
1609.60 0.00001
1609.70 0.00001
1609.80 0.00001
1609.90 0.00001
1610.00 0.00001
1610.10 0.00001
1610.20 0.00001
1610.30 0.00001
1610.40 0.00001
1610.50 0.00001
1610.60 0.00001
1610.70 0.00001
1610.80 0.00001
1610.90 0.00001
1611.00 0.00001
1611.10 0.00001
1611.20 0.00001
1611.30 0.00001
1611.40 0.00001
1611.50 0.00001
1611.60 0.00001
1611.70 0.00001
1611.80 0.00001
1611.90 0.00001
1612.00 0.00001
1612.10 0.00001
1612.20 0.00001
1612.30 0.00001
1612.40 0.00001
1612.50 0.00001
1612.60 0.00001
1612.70 0.00001
1612.80 0.00001
1612.90 0.00001
1613.00 0.00001
1613.10 0.00001
1613.20 0.00001
1613.30 0.00001
1613.40 0.00001
1613.50 0.00001
1613.60 0.00001
1613.70 0.00001
1613.80 0.00001
1613.90 0.00001
1614.00 0.00001
1614.10 0.00001
1614.20 0.00001
1614.30 0.00001
1614.40 0.00001
1614.50 0.00001
1614.60 0.00001
1614.70 0.00001
1614.80 0.00001
1614.90 0.00001
1615.00 0.00001
1615.10 0.00001
1615.20 0.00001
1615.30 0.00001
1615.40 0.00001
1615.50 0.00001
1615.60 0.00001
