# Huble Space Telescope Throughput
# By 03-28-2022
# https://www.stsci.edu/hst/instrumentation/wfc3/documentation/grism-resources/wfc3-g141-calibrations
# With modification: Throughput = sensitivity * unit('erg cm-2') * photon_energy / area
# Wavelength(nm) Throughput(0-1)
997.80 0.00000
997.90 0.00000
998.00 0.00000
998.10 0.00000
998.20 0.00000
998.30 0.00000
998.40 0.00000
998.50 0.00000
998.60 0.00000
998.70 0.00000
998.80 0.00000
998.90 0.00000
999.00 0.00000
999.10 0.00000
999.20 0.00000
999.30 0.00000
999.40 0.00000
999.50 0.00000
999.60 0.00000
999.70 0.00000
999.80 0.00000
999.90 0.00000
1000.00 0.00000
1000.10 0.00000
1000.20 0.00000
1000.30 0.00000
1000.40 0.00000
1000.50 0.00000
1000.60 0.00000
1000.70 0.00000
1000.80 0.00000
1000.90 0.00000
1001.00 0.00000
1001.10 0.00000
1001.20 0.00000
1001.30 0.00000
1001.40 0.00000
1001.50 0.00000
1001.60 0.00000
1001.70 0.00000
1001.80 0.00000
1001.90 0.00000
1002.00 0.00000
1002.10 0.00000
1002.20 0.00000
1002.30 0.00000
1002.40 0.00000
1002.50 0.00000
1002.60 0.00000
1002.70 0.00000
1002.80 0.00000
1002.90 0.00000
1003.00 0.00000
1003.10 0.00000
1003.20 0.00000
1003.30 0.00000
1003.40 0.00000
1003.50 0.00001
1003.60 0.00001
1003.70 0.00001
1003.80 0.00001
1003.90 0.00001
1004.00 0.00001
1004.10 0.00001
1004.20 0.00001
1004.30 0.00001
1004.40 0.00001
1004.50 0.00001
1004.60 0.00001
1004.70 0.00001
1004.80 0.00001
1004.90 0.00001
1005.00 0.00001
1005.10 0.00001
1005.20 0.00001
1005.30 0.00001
1005.40 0.00001
1005.50 0.00001
1005.60 0.00001
1005.70 0.00001
1005.80 0.00001
1005.90 0.00001
1006.00 0.00001
1006.10 0.00001
1006.20 0.00001
1006.30 0.00001
1006.40 0.00001
1006.50 0.00001
1006.60 0.00001
1006.70 0.00001
1006.80 0.00001
1006.90 0.00001
1007.00 0.00001
1007.10 0.00001
1007.20 0.00001
1007.30 0.00001
1007.40 0.00001
1007.50 0.00001
1007.60 0.00001
1007.70 0.00001
1007.80 0.00001
1007.90 0.00001
1008.00 0.00001
1008.10 0.00002
1008.20 0.00002
1008.30 0.00002
1008.40 0.00002
1008.50 0.00002
1008.60 0.00002
1008.70 0.00002
1008.80 0.00002
1008.90 0.00002
1009.00 0.00002
1009.10 0.00002
1009.20 0.00002
1009.30 0.00002
1009.40 0.00002
1009.50 0.00002
1009.60 0.00002
1009.70 0.00002
1009.80 0.00002
1009.90 0.00002
1010.00 0.00002
1010.10 0.00002
1010.20 0.00002
1010.30 0.00003
1010.40 0.00003
1010.50 0.00003
1010.60 0.00003
1010.70 0.00003
1010.80 0.00003
1010.90 0.00003
1011.00 0.00003
1011.10 0.00003
1011.20 0.00003
1011.30 0.00003
1011.40 0.00003
1011.50 0.00003
1011.60 0.00003
1011.70 0.00003
1011.80 0.00003
1011.90 0.00004
1012.00 0.00004
1012.10 0.00004
1012.20 0.00004
1012.30 0.00004
1012.40 0.00004
1012.50 0.00004
1012.60 0.00004
1012.70 0.00004
1012.80 0.00004
1012.90 0.00004
1013.00 0.00004
1013.10 0.00005
1013.20 0.00005
1013.30 0.00005
1013.40 0.00005
1013.50 0.00005
1013.60 0.00005
1013.70 0.00005
1013.80 0.00005
1013.90 0.00005
1014.00 0.00005
1014.10 0.00006
1014.20 0.00006
1014.30 0.00006
1014.40 0.00006
1014.50 0.00006
1014.60 0.00006
1014.70 0.00006
1014.80 0.00006
1014.90 0.00007
1015.00 0.00007
1015.10 0.00007
1015.20 0.00007
1015.30 0.00007
1015.40 0.00007
1015.50 0.00007
1015.60 0.00008
1015.70 0.00008
1015.80 0.00008
1015.90 0.00008
1016.00 0.00008
1016.10 0.00008
1016.20 0.00008
1016.30 0.00009
1016.40 0.00009
1016.50 0.00009
1016.60 0.00009
1016.70 0.00009
1016.80 0.00009
1016.90 0.00010
1017.00 0.00010
1017.10 0.00010
1017.20 0.00010
1017.30 0.00010
1017.40 0.00011
1017.50 0.00011
1017.60 0.00011
1017.70 0.00011
1017.80 0.00011
1017.90 0.00012
1018.00 0.00012
1018.10 0.00012
1018.20 0.00012
1018.30 0.00013
1018.40 0.00013
1018.50 0.00013
1018.60 0.00013
1018.70 0.00013
1018.80 0.00014
1018.90 0.00014
1019.00 0.00014
1019.10 0.00014
1019.20 0.00015
1019.30 0.00015
1019.40 0.00015
1019.50 0.00016
1019.60 0.00016
1019.70 0.00016
1019.80 0.00016
1019.90 0.00017
1020.00 0.00017
1020.10 0.00017
1020.20 0.00018
1020.30 0.00018
1020.40 0.00018
1020.50 0.00018
1020.60 0.00019
1020.70 0.00019
1020.80 0.00019
1020.90 0.00020
1021.00 0.00020
1021.10 0.00020
1021.20 0.00021
1021.30 0.00021
1021.40 0.00022
1021.50 0.00022
1021.60 0.00022
1021.70 0.00023
1021.80 0.00023
1021.90 0.00023
1022.00 0.00024
1022.10 0.00024
1022.20 0.00025
1022.30 0.00025
1022.40 0.00025
1022.50 0.00026
1022.60 0.00026
1022.70 0.00027
1022.80 0.00027
1022.90 0.00028
1023.00 0.00028
1023.10 0.00028
1023.20 0.00029
1023.30 0.00029
1023.40 0.00030
1023.50 0.00030
1023.60 0.00031
1023.70 0.00031
1023.80 0.00032
1023.90 0.00032
1024.00 0.00033
1024.10 0.00033
1024.20 0.00034
1024.30 0.00034
1024.40 0.00035
1024.50 0.00035
1024.60 0.00036
1024.70 0.00036
1024.80 0.00037
1024.90 0.00038
1025.00 0.00038
1025.10 0.00039
1025.20 0.00039
1025.30 0.00040
1025.40 0.00041
1025.50 0.00041
1025.60 0.00042
1025.70 0.00042
1025.80 0.00043
1025.90 0.00044
1026.00 0.00044
1026.10 0.00045
1026.20 0.00046
1026.30 0.00046
1026.40 0.00047
1026.50 0.00048
1026.60 0.00048
1026.70 0.00049
1026.80 0.00050
1026.90 0.00050
1027.00 0.00051
1027.10 0.00052
1027.20 0.00052
1027.30 0.00053
1027.40 0.00054
1027.50 0.00055
1027.60 0.00055
1027.70 0.00056
1027.80 0.00057
1027.90 0.00058
1028.00 0.00059
1028.10 0.00059
1028.20 0.00060
1028.30 0.00061
1028.40 0.00062
1028.50 0.00063
1028.60 0.00063
1028.70 0.00064
1028.80 0.00065
1028.90 0.00066
1029.00 0.00067
1029.10 0.00068
1029.20 0.00069
1029.30 0.00070
1029.40 0.00070
1029.50 0.00071
1029.60 0.00072
1029.70 0.00073
1029.80 0.00074
1029.90 0.00075
1030.00 0.00076
1030.10 0.00077
1030.20 0.00078
1030.30 0.00079
1030.40 0.00080
1030.50 0.00081
1030.60 0.00082
1030.70 0.00083
1030.80 0.00084
1030.90 0.00085
1031.00 0.00086
1031.10 0.00087
1031.20 0.00088
1031.30 0.00089
1031.40 0.00090
1031.50 0.00091
1031.60 0.00092
1031.70 0.00093
1031.80 0.00094
1031.90 0.00096
1032.00 0.00097
1032.10 0.00098
1032.20 0.00099
1032.30 0.00100
1032.40 0.00101
1032.50 0.00102
1032.60 0.00103
1032.70 0.00105
1032.80 0.00106
1032.90 0.00107
1033.00 0.00108
1033.10 0.00109
1033.20 0.00111
1033.30 0.00112
1033.40 0.00113
1033.50 0.00114
1033.60 0.00115
1033.70 0.00117
1033.80 0.00118
1033.90 0.00119
1034.00 0.00120
1034.10 0.00122
1034.20 0.00123
1034.30 0.00124
1034.40 0.00126
1034.50 0.00127
1034.60 0.00128
1034.70 0.00130
1034.80 0.00131
1034.90 0.00132
1035.00 0.00134
1035.10 0.00135
1035.20 0.00136
1035.30 0.00138
1035.40 0.00139
1035.50 0.00140
1035.60 0.00142
1035.70 0.00143
1035.80 0.00144
1035.90 0.00146
1036.00 0.00147
1036.10 0.00149
1036.20 0.00150
1036.30 0.00151
1036.40 0.00153
1036.50 0.00154
1036.60 0.00156
1036.70 0.00157
1036.80 0.00159
1036.90 0.00160
1037.00 0.00162
1037.10 0.00163
1037.20 0.00165
1037.30 0.00166
1037.40 0.00167
1037.50 0.00169
1037.60 0.00170
1037.70 0.00172
1037.80 0.00173
1037.90 0.00175
1038.00 0.00176
1038.10 0.00178
1038.20 0.00179
1038.30 0.00181
1038.40 0.00183
1038.50 0.00184
1038.60 0.00186
1038.70 0.00187
1038.80 0.00189
1038.90 0.00190
1039.00 0.00192
1039.10 0.00193
1039.20 0.00195
1039.30 0.00196
1039.40 0.00198
1039.50 0.00200
1039.60 0.00201
1039.70 0.00203
1039.80 0.00204
1039.90 0.00206
1040.00 0.00207
1040.10 0.00209
1040.20 0.00211
1040.30 0.00212
1040.40 0.00214
1040.50 0.00215
1040.60 0.00217
1040.70 0.00218
1040.80 0.00220
1040.90 0.00222
1041.00 0.00223
1041.10 0.00225
1041.20 0.00226
1041.30 0.00228
1041.40 0.00230
1041.50 0.00231
1041.60 0.00233
1041.70 0.00234
1041.80 0.00236
1041.90 0.00238
1042.00 0.00239
1042.10 0.00241
1042.20 0.00242
1042.30 0.00244
1042.40 0.00246
1042.50 0.00247
1042.60 0.00249
1042.70 0.00250
1042.80 0.00252
1042.90 0.00253
1043.00 0.00255
1043.10 0.00257
1043.20 0.00258
1043.30 0.00260
1043.40 0.00261
1043.50 0.00263
1043.60 0.00265
1043.70 0.00266
1043.80 0.00268
1043.90 0.00269
1044.00 0.00271
1044.10 0.00272
1044.20 0.00274
1044.30 0.00275
1044.40 0.00277
1044.50 0.00279
1044.60 0.00280
1044.70 0.00282
1044.80 0.00283
1044.90 0.00285
1045.00 0.00286
1045.10 0.00288
1045.20 0.00289
1045.30 0.00291
1045.40 0.00292
1045.50 0.00294
1045.60 0.00295
1045.70 0.00297
1045.80 0.00298
1045.90 0.00300
1046.00 0.00301
1046.10 0.00303
1046.20 0.00304
1046.30 0.00306
1046.40 0.00307
1046.50 0.00309
1046.60 0.00310
1046.70 0.00312
1046.80 0.00313
1046.90 0.00315
1047.00 0.00316
1047.10 0.00317
1047.20 0.00319
1047.30 0.00320
1047.40 0.00322
1047.50 0.00323
1047.60 0.00325
1047.70 0.00326
1047.80 0.00327
1047.90 0.00329
1048.00 0.00330
1048.10 0.00331
1048.20 0.00333
1048.30 0.00334
1048.40 0.00336
1048.50 0.00337
1048.60 0.00338
1048.70 0.00340
1048.80 0.00341
1048.90 0.00342
1049.00 0.00344
1049.10 0.00345
1049.20 0.00346
1049.30 0.00348
1049.40 0.00349
1049.50 0.00350
1049.60 0.00351
1049.70 0.00353
1049.80 0.00354
1049.90 0.00355
1050.00 0.00356
1050.10 0.00358
1050.20 0.00359
1050.30 0.00360
1050.40 0.00361
1050.50 0.00363
1050.60 0.00364
1050.70 0.00365
1050.80 0.00366
1050.90 0.00368
1051.00 0.00369
1051.10 0.00370
1051.20 0.00371
1051.30 0.00372
1051.40 0.00373
1051.50 0.00375
1051.60 0.00376
1051.70 0.00377
1051.80 0.00378
1051.90 0.00379
1052.00 0.00380
1052.10 0.00381
1052.20 0.00383
1052.30 0.00384
1052.40 0.00385
1052.50 0.00386
1052.60 0.00387
1052.70 0.00388
1052.80 0.00389
1052.90 0.00390
1053.00 0.00391
1053.10 0.00392
1053.20 0.00394
1053.30 0.00395
1053.40 0.00396
1053.50 0.00397
1053.60 0.00398
1053.70 0.00399
1053.80 0.00400
1053.90 0.00401
1054.00 0.00402
1054.10 0.00403
1054.20 0.00404
1054.30 0.00405
1054.40 0.00406
1054.50 0.00407
1054.60 0.00408
1054.70 0.00409
1054.80 0.00410
1054.90 0.00411
1055.00 0.00412
1055.10 0.00413
1055.20 0.00414
1055.30 0.00415
1055.40 0.00416
1055.50 0.00417
1055.60 0.00418
1055.70 0.00419
1055.80 0.00420
1055.90 0.00421
1056.00 0.00422
1056.10 0.00423
1056.20 0.00424
1056.30 0.00425
1056.40 0.00426
1056.50 0.00427
1056.60 0.00428
1056.70 0.00429
1056.80 0.00430
1056.90 0.00431
1057.00 0.00432
1057.10 0.00433
1057.20 0.00434
1057.30 0.00435
1057.40 0.00436
1057.50 0.00437
1057.60 0.00438
1057.70 0.00439
1057.80 0.00440
1057.90 0.00441
1058.00 0.00442
1058.10 0.00443
1058.20 0.00444
1058.30 0.00445
1058.40 0.00446
1058.50 0.00447
1058.60 0.00448
1058.70 0.00449
1058.80 0.00450
1058.90 0.00451
1059.00 0.00452
1059.10 0.00453
1059.20 0.00454
1059.30 0.00456
1059.40 0.00457
1059.50 0.00458
1059.60 0.00459
1059.70 0.00460
1059.80 0.00461
1059.90 0.00462
1060.00 0.00463
1060.10 0.00464
1060.20 0.00465
1060.30 0.00466
1060.40 0.00468
1060.50 0.00469
1060.60 0.00470
1060.70 0.00471
1060.80 0.00472
1060.90 0.00473
1061.00 0.00474
1061.10 0.00476
1061.20 0.00477
1061.30 0.00478
1061.40 0.00479
1061.50 0.00480
1061.60 0.00482
1061.70 0.00483
1061.80 0.00484
1061.90 0.00485
1062.00 0.00487
1062.10 0.00488
1062.20 0.00489
1062.30 0.00490
1062.40 0.00492
1062.50 0.00493
1062.60 0.00494
1062.70 0.00496
1062.80 0.00497
1062.90 0.00498
1063.00 0.00500
1063.10 0.00501
1063.20 0.00502
1063.30 0.00504
1063.40 0.00505
1063.50 0.00507
1063.60 0.00508
1063.70 0.00509
1063.80 0.00511
1063.90 0.00512
1064.00 0.00514
1064.10 0.00515
1064.20 0.00517
1064.30 0.00518
1064.40 0.00520
1064.50 0.00521
1064.60 0.00523
1064.70 0.00524
1064.80 0.00526
1064.90 0.00527
1065.00 0.00529
1065.10 0.00531
1065.20 0.00532
1065.30 0.00534
1065.40 0.00535
1065.50 0.00537
1065.60 0.00539
1065.70 0.00540
1065.80 0.00542
1065.90 0.00544
1066.00 0.00546
1066.10 0.00547
1066.20 0.00549
1066.30 0.00551
1066.40 0.00552
1066.50 0.00554
1066.60 0.00556
1066.70 0.00558
1066.80 0.00560
1066.90 0.00561
1067.00 0.00563
1067.10 0.00565
1067.20 0.00567
1067.30 0.00569
1067.40 0.00571
1067.50 0.00573
1067.60 0.00574
1067.70 0.00576
1067.80 0.00578
1067.90 0.00580
1068.00 0.00582
1068.10 0.00584
1068.20 0.00586
1068.30 0.00588
1068.40 0.00590
1068.50 0.00592
1068.60 0.00594
1068.70 0.00596
1068.80 0.00598
1068.90 0.00600
1069.00 0.00602
1069.10 0.00604
1069.20 0.00606
1069.30 0.00609
1069.40 0.00611
1069.50 0.00613
1069.60 0.00615
1069.70 0.00617
1069.80 0.00619
1069.90 0.00621
1070.00 0.00623
1070.10 0.00626
1070.20 0.00628
1070.30 0.00630
1070.40 0.00632
1070.50 0.00634
1070.60 0.00637
1070.70 0.00639
1070.80 0.00641
1070.90 0.00643
1071.00 0.00646
1071.10 0.00648
1071.20 0.00650
1071.30 0.00652
1071.40 0.00655
1071.50 0.00657
1071.60 0.00659
1071.70 0.00661
1071.80 0.00664
1071.90 0.00666
1072.00 0.00668
1072.10 0.00671
1072.20 0.00673
1072.30 0.00675
1072.40 0.00678
1072.50 0.00680
1072.60 0.00682
1072.70 0.00685
1072.80 0.00687
1072.90 0.00689
1073.00 0.00692
1073.10 0.00694
1073.20 0.00696
1073.30 0.00699
1073.40 0.00701
1073.50 0.00703
1073.60 0.00706
1073.70 0.00708
1073.80 0.00710
1073.90 0.00713
1074.00 0.00715
1074.10 0.00717
1074.20 0.00720
1074.30 0.00722
1074.40 0.00725
1074.50 0.00727
1074.60 0.00729
1074.70 0.00732
1074.80 0.00734
1074.90 0.00736
1075.00 0.00739
1075.10 0.00741
1075.20 0.00743
1075.30 0.00746
1075.40 0.00748
1075.50 0.00750
1075.60 0.00753
1075.70 0.00755
1075.80 0.00757
1075.90 0.00760
1076.00 0.00762
1076.10 0.00764
1076.20 0.00767
1076.30 0.00769
1076.40 0.00771
1076.50 0.00773
1076.60 0.00776
1076.70 0.00778
1076.80 0.00780
1076.90 0.00783
1077.00 0.00785
1077.10 0.00787
1077.20 0.00789
1077.30 0.00792
1077.40 0.00794
1077.50 0.00796
1077.60 0.00798
1077.70 0.00800
1077.80 0.00803
1077.90 0.00805
1078.00 0.00807
1078.10 0.00809
1078.20 0.00811
1078.30 0.00813
1078.40 0.00815
1078.50 0.00817
1078.60 0.00820
1078.70 0.00822
1078.80 0.00824
1078.90 0.00826
1079.00 0.00828
1079.10 0.00830
1079.20 0.00832
1079.30 0.00834
1079.40 0.00836
1079.50 0.00838
1079.60 0.00840
1079.70 0.00842
1079.80 0.00844
1079.90 0.00846
1080.00 0.00848
1080.10 0.00850
1080.20 0.00851
1080.30 0.00853
1080.40 0.00855
1080.50 0.00857
1080.60 0.00859
1080.70 0.00861
1080.80 0.00862
1080.90 0.00864
1081.00 0.00866
1081.10 0.00868
1081.20 0.00869
1081.30 0.00871
1081.40 0.00873
1081.50 0.00875
1081.60 0.00876
1081.70 0.00878
1081.80 0.00879
1081.90 0.00881
1082.00 0.00883
1082.10 0.00884
1082.20 0.00886
1082.30 0.00887
1082.40 0.00889
1082.50 0.00890
1082.60 0.00892
1082.70 0.00893
1082.80 0.00895
1082.90 0.00896
1083.00 0.00898
1083.10 0.00899
1083.20 0.00900
1083.30 0.00902
1083.40 0.00903
1083.50 0.00905
1083.60 0.00906
1083.70 0.00907
1083.80 0.00908
1083.90 0.00910
1084.00 0.00911
1084.10 0.00912
1084.20 0.00913
1084.30 0.00915
1084.40 0.00916
1084.50 0.00917
1084.60 0.00918
1084.70 0.00919
1084.80 0.00920
1084.90 0.00921
1085.00 0.00922
1085.10 0.00923
1085.20 0.00924
1085.30 0.00925
1085.40 0.00926
1085.50 0.00927
1085.60 0.00928
1085.70 0.00929
1085.80 0.00930
1085.90 0.00931
1086.00 0.00932
1086.10 0.00933
1086.20 0.00934
1086.30 0.00934
1086.40 0.00935
1086.50 0.00936
1086.60 0.00937
1086.70 0.00938
1086.80 0.00938
1086.90 0.00939
1087.00 0.00940
1087.10 0.00940
1087.20 0.00941
1087.30 0.00942
1087.40 0.00942
1087.50 0.00943
1087.60 0.00944
1087.70 0.00944
1087.80 0.00945
1087.90 0.00945
1088.00 0.00946
1088.10 0.00946
1088.20 0.00947
1088.30 0.00947
1088.40 0.00948
1088.50 0.00948
1088.60 0.00949
1088.70 0.00949
1088.80 0.00950
1088.90 0.00950
1089.00 0.00951
1089.10 0.00951
1089.20 0.00951
1089.30 0.00952
1089.40 0.00952
1089.50 0.00952
1089.60 0.00953
1089.70 0.00953
1089.80 0.00953
1089.90 0.00953
1090.00 0.00954
1090.10 0.00954
1090.20 0.00954
1090.30 0.00954
1090.40 0.00955
1090.50 0.00955
1090.60 0.00955
1090.70 0.00955
1090.80 0.00955
1090.90 0.00956
1091.00 0.00956
1091.10 0.00956
1091.20 0.00956
1091.30 0.00956
1091.40 0.00956
1091.50 0.00956
1091.60 0.00956
1091.70 0.00957
1091.80 0.00957
1091.90 0.00957
1092.00 0.00957
1092.10 0.00957
1092.20 0.00957
1092.30 0.00957
1092.40 0.00957
1092.50 0.00957
1092.60 0.00957
1092.70 0.00957
1092.80 0.00957
1092.90 0.00957
1093.00 0.00957
1093.10 0.00957
1093.20 0.00957
1093.30 0.00957
1093.40 0.00957
1093.50 0.00957
1093.60 0.00957
1093.70 0.00957
1093.80 0.00957
1093.90 0.00957
1094.00 0.00957
1094.10 0.00956
1094.20 0.00956
1094.30 0.00956
1094.40 0.00956
1094.50 0.00956
1094.60 0.00956
1094.70 0.00956
1094.80 0.00956
1094.90 0.00956
1095.00 0.00956
1095.10 0.00956
1095.20 0.00956
1095.30 0.00955
1095.40 0.00955
1095.50 0.00955
1095.60 0.00955
1095.70 0.00955
1095.80 0.00955
1095.90 0.00955
1096.00 0.00955
1096.10 0.00955
1096.20 0.00955
1096.30 0.00954
1096.40 0.00954
1096.50 0.00954
1096.60 0.00954
1096.70 0.00954
1096.80 0.00954
1096.90 0.00954
1097.00 0.00954
1097.10 0.00954
1097.20 0.00954
1097.30 0.00953
1097.40 0.00953
1097.50 0.00953
1097.60 0.00953
1097.70 0.00953
1097.80 0.00953
1097.90 0.00953
1098.00 0.00953
1098.10 0.00953
1098.20 0.00953
1098.30 0.00953
1098.40 0.00953
1098.50 0.00953
1098.60 0.00953
1098.70 0.00952
1098.80 0.00952
1098.90 0.00952
1099.00 0.00952
1099.10 0.00952
1099.20 0.00952
1099.30 0.00952
1099.40 0.00952
1099.50 0.00952
1099.60 0.00952
1099.70 0.00952
1099.80 0.00952
1099.90 0.00952
1100.00 0.00952
1100.10 0.00952
1100.20 0.00952
1100.30 0.00952
1100.40 0.00952
1100.50 0.00952
1100.60 0.00952
1100.70 0.00952
1100.80 0.00952
1100.90 0.00952
1101.00 0.00953
1101.10 0.00953
1101.20 0.00953
1101.30 0.00953
1101.40 0.00953
1101.50 0.00953
1101.60 0.00953
1101.70 0.00953
1101.80 0.00953
1101.90 0.00953
1102.00 0.00953
1102.10 0.00954
1102.20 0.00954
1102.30 0.00954
1102.40 0.00954
1102.50 0.00954
1102.60 0.00954
1102.70 0.00954
1102.80 0.00955
1102.90 0.00955
1103.00 0.00955
1103.10 0.00955
1103.20 0.00955
1103.30 0.00956
1103.40 0.00956
1103.50 0.00956
1103.60 0.00956
1103.70 0.00956
1103.80 0.00957
1103.90 0.00957
1104.00 0.00957
1104.10 0.00957
1104.20 0.00958
1104.30 0.00958
1104.40 0.00958
1104.50 0.00958
1104.60 0.00959
1104.70 0.00959
1104.80 0.00959
1104.90 0.00959
1105.00 0.00960
1105.10 0.00960
1105.20 0.00960
1105.30 0.00961
1105.40 0.00961
1105.50 0.00961
1105.60 0.00962
1105.70 0.00962
1105.80 0.00962
1105.90 0.00963
1106.00 0.00963
1106.10 0.00963
1106.20 0.00964
1106.30 0.00964
1106.40 0.00964
1106.50 0.00965
1106.60 0.00965
1106.70 0.00965
1106.80 0.00966
1106.90 0.00966
1107.00 0.00966
1107.10 0.00967
1107.20 0.00967
1107.30 0.00968
1107.40 0.00968
1107.50 0.00968
1107.60 0.00969
1107.70 0.00969
1107.80 0.00970
1107.90 0.00970
1108.00 0.00970
1108.10 0.00971
1108.20 0.00971
1108.30 0.00972
1108.40 0.00972
1108.50 0.00972
1108.60 0.00973
1108.70 0.00973
1108.80 0.00974
1108.90 0.00974
1109.00 0.00975
1109.10 0.00975
1109.20 0.00975
1109.30 0.00976
1109.40 0.00976
1109.50 0.00977
1109.60 0.00977
1109.70 0.00978
1109.80 0.00978
1109.90 0.00978
1110.00 0.00979
1110.10 0.00979
1110.20 0.00980
1110.30 0.00980
1110.40 0.00981
1110.50 0.00981
1110.60 0.00981
1110.70 0.00982
1110.80 0.00982
1110.90 0.00983
1111.00 0.00983
1111.10 0.00984
1111.20 0.00984
1111.30 0.00985
1111.40 0.00985
1111.50 0.00985
1111.60 0.00986
1111.70 0.00986
1111.80 0.00987
1111.90 0.00987
1112.00 0.00987
1112.10 0.00988
1112.20 0.00988
1112.30 0.00989
1112.40 0.00989
1112.50 0.00989
1112.60 0.00990
1112.70 0.00990
1112.80 0.00991
1112.90 0.00991
1113.00 0.00991
1113.10 0.00992
1113.20 0.00992
1113.30 0.00993
1113.40 0.00993
1113.50 0.00993
1113.60 0.00994
1113.70 0.00994
1113.80 0.00994
1113.90 0.00995
1114.00 0.00995
1114.10 0.00995
1114.20 0.00996
1114.30 0.00996
1114.40 0.00996
1114.50 0.00997
1114.60 0.00997
1114.70 0.00997
1114.80 0.00998
1114.90 0.00998
1115.00 0.00998
1115.10 0.00998
1115.20 0.00999
1115.30 0.00999
1115.40 0.00999
1115.50 0.01000
1115.60 0.01000
1115.70 0.01000
1115.80 0.01000
1115.90 0.01001
1116.00 0.01001
1116.10 0.01001
1116.20 0.01001
1116.30 0.01001
1116.40 0.01002
1116.50 0.01002
1116.60 0.01002
1116.70 0.01002
1116.80 0.01002
1116.90 0.01002
1117.00 0.01003
1117.10 0.01003
1117.20 0.01003
1117.30 0.01003
1117.40 0.01003
1117.50 0.01003
1117.60 0.01003
1117.70 0.01003
1117.80 0.01003
1117.90 0.01004
1118.00 0.01004
1118.10 0.01004
1118.20 0.01004
1118.30 0.01004
1118.40 0.01004
1118.50 0.01004
1118.60 0.01004
1118.70 0.01004
1118.80 0.01004
1118.90 0.01004
1119.00 0.01004
1119.10 0.01004
1119.20 0.01004
1119.30 0.01004
1119.40 0.01004
1119.50 0.01003
1119.60 0.01003
1119.70 0.01003
1119.80 0.01003
1119.90 0.01003
1120.00 0.01003
1120.10 0.01003
1120.20 0.01003
1120.30 0.01003
1120.40 0.01002
1120.50 0.01002
1120.60 0.01002
1120.70 0.01002
1120.80 0.01002
1120.90 0.01001
1121.00 0.01001
1121.10 0.01001
1121.20 0.01001
1121.30 0.01000
1121.40 0.01000
1121.50 0.01000
1121.60 0.01000
1121.70 0.00999
1121.80 0.00999
1121.90 0.00999
1122.00 0.00998
1122.10 0.00998
1122.20 0.00998
1122.30 0.00997
1122.40 0.00997
1122.50 0.00996
1122.60 0.00996
1122.70 0.00996
1122.80 0.00995
1122.90 0.00995
1123.00 0.00994
1123.10 0.00994
1123.20 0.00993
1123.30 0.00993
1123.40 0.00992
1123.50 0.00992
1123.60 0.00991
1123.70 0.00991
1123.80 0.00990
1123.90 0.00990
1124.00 0.00989
1124.10 0.00989
1124.20 0.00988
1124.30 0.00987
1124.40 0.00987
1124.50 0.00986
1124.60 0.00986
1124.70 0.00985
1124.80 0.00984
1124.90 0.00984
1125.00 0.00983
1125.10 0.00982
1125.20 0.00982
1125.30 0.00981
1125.40 0.00980
1125.50 0.00979
1125.60 0.00979
1125.70 0.00978
1125.80 0.00977
1125.90 0.00976
1126.00 0.00976
1126.10 0.00975
1126.20 0.00974
1126.30 0.00973
1126.40 0.00972
1126.50 0.00972
1126.60 0.00971
1126.70 0.00970
1126.80 0.00969
1126.90 0.00968
1127.00 0.00967
1127.10 0.00966
1127.20 0.00965
1127.30 0.00964
1127.40 0.00963
1127.50 0.00963
1127.60 0.00962
1127.70 0.00961
1127.80 0.00960
1127.90 0.00959
1128.00 0.00958
1128.10 0.00957
1128.20 0.00956
1128.30 0.00955
1128.40 0.00953
1128.50 0.00952
1128.60 0.00951
1128.70 0.00950
1128.80 0.00949
1128.90 0.00948
1129.00 0.00947
1129.10 0.00946
1129.20 0.00945
1129.30 0.00944
1129.40 0.00943
1129.50 0.00941
1129.60 0.00940
1129.70 0.00939
1129.80 0.00938
1129.90 0.00937
1130.00 0.00935
1130.10 0.00934
1130.20 0.00933
1130.30 0.00932
1130.40 0.00931
1130.50 0.00929
1130.60 0.00928
1130.70 0.00927
1130.80 0.00926
1130.90 0.00924
1131.00 0.00923
1131.10 0.00922
1131.20 0.00920
1131.30 0.00919
1131.40 0.00918
1131.50 0.00917
1131.60 0.00915
1131.70 0.00914
1131.80 0.00912
1131.90 0.00911
1132.00 0.00910
1132.10 0.00908
1132.20 0.00907
1132.30 0.00906
1132.40 0.00904
1132.50 0.00903
1132.60 0.00901
1132.70 0.00900
1132.80 0.00899
1132.90 0.00897
1133.00 0.00896
1133.10 0.00894
1133.20 0.00893
1133.30 0.00891
1133.40 0.00890
1133.50 0.00889
1133.60 0.00887
1133.70 0.00886
1133.80 0.00884
1133.90 0.00883
1134.00 0.00881
1134.10 0.00880
1134.20 0.00878
1134.30 0.00877
1134.40 0.00875
1134.50 0.00874
1134.60 0.00872
1134.70 0.00871
1134.80 0.00869
1134.90 0.00868
1135.00 0.00866
1135.10 0.00865
1135.20 0.00863
1135.30 0.00861
1135.40 0.00860
1135.50 0.00858
1135.60 0.00857
1135.70 0.00855
1135.80 0.00854
1135.90 0.00852
1136.00 0.00851
1136.10 0.00849
1136.20 0.00847
1136.30 0.00846
1136.40 0.00844
1136.50 0.00843
1136.60 0.00841
1136.70 0.00840
1136.80 0.00838
1136.90 0.00837
1137.00 0.00835
1137.10 0.00833
1137.20 0.00832
1137.30 0.00830
1137.40 0.00829
1137.50 0.00827
1137.60 0.00825
1137.70 0.00824
1137.80 0.00822
1137.90 0.00821
1138.00 0.00819
1138.10 0.00818
1138.20 0.00816
1138.30 0.00814
1138.40 0.00813
1138.50 0.00811
1138.60 0.00810
1138.70 0.00808
1138.80 0.00807
1138.90 0.00805
1139.00 0.00803
1139.10 0.00802
1139.20 0.00800
1139.30 0.00799
1139.40 0.00797
1139.50 0.00796
1139.60 0.00794
1139.70 0.00793
1139.80 0.00791
1139.90 0.00789
1140.00 0.00788
1140.10 0.00786
1140.20 0.00785
1140.30 0.00783
1140.40 0.00782
1140.50 0.00780
1140.60 0.00779
1140.70 0.00777
1140.80 0.00776
1140.90 0.00774
1141.00 0.00773
1141.10 0.00771
1141.20 0.00770
1141.30 0.00768
1141.40 0.00767
1141.50 0.00765
1141.60 0.00764
1141.70 0.00763
1141.80 0.00761
1141.90 0.00760
1142.00 0.00758
1142.10 0.00757
1142.20 0.00755
1142.30 0.00754
1142.40 0.00753
1142.50 0.00751
1142.60 0.00750
1142.70 0.00748
1142.80 0.00747
1142.90 0.00746
1143.00 0.00744
1143.10 0.00743
1143.20 0.00742
1143.30 0.00740
1143.40 0.00739
1143.50 0.00738
1143.60 0.00736
1143.70 0.00735
1143.80 0.00734
1143.90 0.00733
1144.00 0.00731
1144.10 0.00730
1144.20 0.00729
1144.30 0.00728
1144.40 0.00726
1144.50 0.00725
1144.60 0.00724
1144.70 0.00723
1144.80 0.00722
1144.90 0.00720
1145.00 0.00719
1145.10 0.00718
1145.20 0.00717
1145.30 0.00716
1145.40 0.00715
1145.50 0.00714
1145.60 0.00712
1145.70 0.00711
1145.80 0.00710
1145.90 0.00709
1146.00 0.00708
1146.10 0.00707
1146.20 0.00706
1146.30 0.00705
1146.40 0.00704
1146.50 0.00703
1146.60 0.00702
1146.70 0.00701
1146.80 0.00700
1146.90 0.00699
1147.00 0.00698
1147.10 0.00697
1147.20 0.00696
1147.30 0.00696
1147.40 0.00695
1147.50 0.00694
1147.60 0.00693
1147.70 0.00692
1147.80 0.00691
1147.90 0.00691
1148.00 0.00690
1148.10 0.00689
1148.20 0.00688
1148.30 0.00687
1148.40 0.00687
1148.50 0.00686
1148.60 0.00685
1148.70 0.00685
1148.80 0.00684
1148.90 0.00683
1149.00 0.00682
1149.10 0.00682
1149.20 0.00681
1149.30 0.00681
1149.40 0.00680
1149.50 0.00679
1149.60 0.00679
1149.70 0.00678
1149.80 0.00678
1149.90 0.00677
1150.00 0.00677
1150.10 0.00676
1150.20 0.00676
1150.30 0.00675
1150.40 0.00675
1150.50 0.00674
1150.60 0.00674
1150.70 0.00673
1150.80 0.00673
1150.90 0.00673
1151.00 0.00672
1151.10 0.00672
1151.20 0.00671
1151.30 0.00671
1151.40 0.00671
1151.50 0.00670
1151.60 0.00670
1151.70 0.00670
1151.80 0.00670
1151.90 0.00669
1152.00 0.00669
1152.10 0.00669
1152.20 0.00669
1152.30 0.00668
1152.40 0.00668
1152.50 0.00668
1152.60 0.00668
1152.70 0.00668
1152.80 0.00668
1152.90 0.00667
1153.00 0.00667
1153.10 0.00667
1153.20 0.00667
1153.30 0.00667
1153.40 0.00667
1153.50 0.00667
1153.60 0.00667
1153.70 0.00667
1153.80 0.00667
1153.90 0.00667
1154.00 0.00667
1154.10 0.00667
1154.20 0.00667
1154.30 0.00667
1154.40 0.00667
1154.50 0.00667
1154.60 0.00667
1154.70 0.00667
1154.80 0.00667
1154.90 0.00668
1155.00 0.00668
1155.10 0.00668
1155.20 0.00668
1155.30 0.00668
1155.40 0.00668
1155.50 0.00669
1155.60 0.00669
1155.70 0.00669
1155.80 0.00669
1155.90 0.00669
1156.00 0.00670
1156.10 0.00670
1156.20 0.00670
1156.30 0.00670
1156.40 0.00671
1156.50 0.00671
1156.60 0.00671
1156.70 0.00672
1156.80 0.00672
1156.90 0.00672
1157.00 0.00673
1157.10 0.00673
1157.20 0.00673
1157.30 0.00674
1157.40 0.00674
1157.50 0.00674
1157.60 0.00675
1157.70 0.00675
1157.80 0.00676
1157.90 0.00676
1158.00 0.00676
1158.10 0.00677
1158.20 0.00677
1158.30 0.00678
1158.40 0.00678
1158.50 0.00679
1158.60 0.00679
1158.70 0.00680
1158.80 0.00680
1158.90 0.00680
1159.00 0.00681
1159.10 0.00681
1159.20 0.00682
1159.30 0.00682
1159.40 0.00683
1159.50 0.00683
1159.60 0.00684
1159.70 0.00684
1159.80 0.00685
1159.90 0.00686
1160.00 0.00686
1160.10 0.00687
1160.20 0.00687
1160.30 0.00688
1160.40 0.00688
1160.50 0.00689
1160.60 0.00689
1160.70 0.00690
1160.80 0.00690
1160.90 0.00691
1161.00 0.00692
1161.10 0.00692
1161.20 0.00693
1161.30 0.00693
1161.40 0.00694
1161.50 0.00694
1161.60 0.00695
1161.70 0.00696
1161.80 0.00696
1161.90 0.00697
1162.00 0.00697
1162.10 0.00698
1162.20 0.00699
1162.30 0.00699
1162.40 0.00700
1162.50 0.00700
1162.60 0.00701
1162.70 0.00701
1162.80 0.00702
1162.90 0.00703
1163.00 0.00703
1163.10 0.00704
1163.20 0.00704
1163.30 0.00705
1163.40 0.00706
1163.50 0.00706
1163.60 0.00707
1163.70 0.00707
1163.80 0.00708
1163.90 0.00708
1164.00 0.00709
1164.10 0.00710
1164.20 0.00710
1164.30 0.00711
1164.40 0.00711
1164.50 0.00712
1164.60 0.00712
1164.70 0.00713
1164.80 0.00714
1164.90 0.00714
1165.00 0.00715
1165.10 0.00715
1165.20 0.00716
1165.30 0.00716
1165.40 0.00717
1165.50 0.00717
1165.60 0.00718
1165.70 0.00718
1165.80 0.00719
1165.90 0.00719
1166.00 0.00720
1166.10 0.00720
1166.20 0.00721
1166.30 0.00721
1166.40 0.00722
1166.50 0.00722
1166.60 0.00723
1166.70 0.00723
1166.80 0.00724
1166.90 0.00724
1167.00 0.00725
1167.10 0.00725
1167.20 0.00726
1167.30 0.00726
1167.40 0.00726
1167.50 0.00727
1167.60 0.00727
1167.70 0.00728
1167.80 0.00728
1167.90 0.00728
1168.00 0.00729
1168.10 0.00729
1168.20 0.00730
1168.30 0.00730
1168.40 0.00730
1168.50 0.00731
1168.60 0.00731
1168.70 0.00731
1168.80 0.00732
1168.90 0.00732
1169.00 0.00732
1169.10 0.00733
1169.20 0.00733
1169.30 0.00733
1169.40 0.00734
1169.50 0.00734
1169.60 0.00734
1169.70 0.00735
1169.80 0.00735
1169.90 0.00735
1170.00 0.00735
1170.10 0.00736
1170.20 0.00736
1170.30 0.00736
1170.40 0.00736
1170.50 0.00737
1170.60 0.00737
1170.70 0.00737
1170.80 0.00737
1170.90 0.00737
1171.00 0.00738
1171.10 0.00738
1171.20 0.00738
1171.30 0.00738
1171.40 0.00738
1171.50 0.00738
1171.60 0.00739
1171.70 0.00739
1171.80 0.00739
1171.90 0.00739
1172.00 0.00739
1172.10 0.00739
1172.20 0.00739
1172.30 0.00739
1172.40 0.00740
1172.50 0.00740
1172.60 0.00740
1172.70 0.00740
1172.80 0.00740
1172.90 0.00740
1173.00 0.00740
1173.10 0.00740
1173.20 0.00740
1173.30 0.00740
1173.40 0.00740
1173.50 0.00740
1173.60 0.00740
1173.70 0.00740
1173.80 0.00740
1173.90 0.00740
1174.00 0.00740
1174.10 0.00740
1174.20 0.00740
1174.30 0.00740
1174.40 0.00740
1174.50 0.00740
1174.60 0.00740
1174.70 0.00740
1174.80 0.00740
1174.90 0.00740
1175.00 0.00740
1175.10 0.00739
1175.20 0.00739
1175.30 0.00739
1175.40 0.00739
1175.50 0.00739
1175.60 0.00739
1175.70 0.00739
1175.80 0.00739
1175.90 0.00739
1176.00 0.00739
1176.10 0.00738
1176.20 0.00738
1176.30 0.00738
1176.40 0.00738
1176.50 0.00738
1176.60 0.00738
1176.70 0.00737
1176.80 0.00737
1176.90 0.00737
1177.00 0.00737
1177.10 0.00737
1177.20 0.00737
1177.30 0.00736
1177.40 0.00736
1177.50 0.00736
1177.60 0.00736
1177.70 0.00736
1177.80 0.00735
1177.90 0.00735
1178.00 0.00735
1178.10 0.00735
1178.20 0.00734
1178.30 0.00734
1178.40 0.00734
1178.50 0.00734
1178.60 0.00734
1178.70 0.00733
1178.80 0.00733
1178.90 0.00733
1179.00 0.00733
1179.10 0.00732
1179.20 0.00732
1179.30 0.00732
1179.40 0.00731
1179.50 0.00731
1179.60 0.00731
1179.70 0.00731
1179.80 0.00730
1179.90 0.00730
1180.00 0.00730
1180.10 0.00730
1180.20 0.00729
1180.30 0.00729
1180.40 0.00729
1180.50 0.00728
1180.60 0.00728
1180.70 0.00728
1180.80 0.00727
1180.90 0.00727
1181.00 0.00727
1181.10 0.00727
1181.20 0.00726
1181.30 0.00726
1181.40 0.00726
1181.50 0.00725
1181.60 0.00725
1181.70 0.00725
1181.80 0.00724
1181.90 0.00724
1182.00 0.00724
1182.10 0.00723
1182.20 0.00723
1182.30 0.00723
1182.40 0.00722
1182.50 0.00722
1182.60 0.00722
1182.70 0.00721
1182.80 0.00721
1182.90 0.00721
1183.00 0.00720
1183.10 0.00720
1183.20 0.00720
1183.30 0.00719
1183.40 0.00719
1183.50 0.00719
1183.60 0.00718
1183.70 0.00718
1183.80 0.00718
1183.90 0.00717
1184.00 0.00717
1184.10 0.00717
1184.20 0.00716
1184.30 0.00716
1184.40 0.00716
1184.50 0.00715
1184.60 0.00715
1184.70 0.00715
1184.80 0.00714
1184.90 0.00714
1185.00 0.00714
1185.10 0.00713
1185.20 0.00713
1185.30 0.00713
1185.40 0.00712
1185.50 0.00712
1185.60 0.00711
1185.70 0.00711
1185.80 0.00711
1185.90 0.00710
1186.00 0.00710
1186.10 0.00710
1186.20 0.00709
1186.30 0.00709
1186.40 0.00709
1186.50 0.00708
1186.60 0.00708
1186.70 0.00707
1186.80 0.00707
1186.90 0.00707
1187.00 0.00706
1187.10 0.00706
1187.20 0.00706
1187.30 0.00705
1187.40 0.00705
1187.50 0.00705
1187.60 0.00704
1187.70 0.00704
1187.80 0.00703
1187.90 0.00703
1188.00 0.00703
1188.10 0.00702
1188.20 0.00702
1188.30 0.00701
1188.40 0.00701
1188.50 0.00701
1188.60 0.00700
1188.70 0.00700
1188.80 0.00700
1188.90 0.00699
1189.00 0.00699
1189.10 0.00698
1189.20 0.00698
1189.30 0.00698
1189.40 0.00697
1189.50 0.00697
1189.60 0.00696
1189.70 0.00696
1189.80 0.00695
1189.90 0.00695
1190.00 0.00695
1190.10 0.00694
1190.20 0.00694
1190.30 0.00693
1190.40 0.00693
1190.50 0.00693
1190.60 0.00692
1190.70 0.00692
1190.80 0.00691
1190.90 0.00691
1191.00 0.00690
1191.10 0.00690
1191.20 0.00690
1191.30 0.00689
1191.40 0.00689
1191.50 0.00688
1191.60 0.00688
1191.70 0.00687
1191.80 0.00687
1191.90 0.00686
1192.00 0.00686
1192.10 0.00685
1192.20 0.00685
1192.30 0.00684
1192.40 0.00684
1192.50 0.00684
1192.60 0.00683
1192.70 0.00683
1192.80 0.00682
1192.90 0.00682
1193.00 0.00681
1193.10 0.00681
1193.20 0.00680
1193.30 0.00680
1193.40 0.00679
1193.50 0.00679
1193.60 0.00678
1193.70 0.00678
1193.80 0.00677
1193.90 0.00677
1194.00 0.00676
1194.10 0.00675
1194.20 0.00675
1194.30 0.00674
1194.40 0.00674
1194.50 0.00673
1194.60 0.00673
1194.70 0.00672
1194.80 0.00672
1194.90 0.00671
1195.00 0.00671
1195.10 0.00670
1195.20 0.00669
1195.30 0.00669
1195.40 0.00668
1195.50 0.00668
1195.60 0.00667
1195.70 0.00667
1195.80 0.00666
1195.90 0.00665
1196.00 0.00665
1196.10 0.00664
1196.20 0.00664
1196.30 0.00663
1196.40 0.00663
1196.50 0.00662
1196.60 0.00661
1196.70 0.00661
1196.80 0.00660
1196.90 0.00659
1197.00 0.00659
1197.10 0.00658
1197.20 0.00658
1197.30 0.00657
1197.40 0.00656
1197.50 0.00656
1197.60 0.00655
1197.70 0.00654
1197.80 0.00654
1197.90 0.00653
1198.00 0.00652
1198.10 0.00652
1198.20 0.00651
1198.30 0.00651
1198.40 0.00650
1198.50 0.00649
1198.60 0.00649
1198.70 0.00648
1198.80 0.00647
1198.90 0.00647
1199.00 0.00646
1199.10 0.00645
1199.20 0.00645
1199.30 0.00644
1199.40 0.00643
1199.50 0.00642
1199.60 0.00642
1199.70 0.00641
1199.80 0.00640
1199.90 0.00640
1200.00 0.00639
1200.10 0.00638
1200.20 0.00638
1200.30 0.00637
1200.40 0.00636
1200.50 0.00636
1200.60 0.00635
1200.70 0.00634
1200.80 0.00634
1200.90 0.00633
1201.00 0.00632
1201.10 0.00631
1201.20 0.00631
1201.30 0.00630
1201.40 0.00629
1201.50 0.00629
1201.60 0.00628
1201.70 0.00627
1201.80 0.00627
1201.90 0.00626
1202.00 0.00625
1202.10 0.00624
1202.20 0.00624
1202.30 0.00623
1202.40 0.00622
1202.50 0.00622
1202.60 0.00621
1202.70 0.00620
1202.80 0.00620
1202.90 0.00619
1203.00 0.00618
1203.10 0.00618
1203.20 0.00617
1203.30 0.00616
1203.40 0.00616
1203.50 0.00615
1203.60 0.00614
1203.70 0.00614
1203.80 0.00613
1203.90 0.00612
1204.00 0.00612
1204.10 0.00611
1204.20 0.00610
1204.30 0.00610
1204.40 0.00609
1204.50 0.00608
1204.60 0.00608
1204.70 0.00607
1204.80 0.00607
1204.90 0.00606
1205.00 0.00605
1205.10 0.00605
1205.20 0.00604
1205.30 0.00604
1205.40 0.00603
1205.50 0.00602
1205.60 0.00602
1205.70 0.00601
1205.80 0.00601
1205.90 0.00600
1206.00 0.00600
1206.10 0.00599
1206.20 0.00598
1206.30 0.00598
1206.40 0.00597
1206.50 0.00597
1206.60 0.00596
1206.70 0.00596
1206.80 0.00595
1206.90 0.00595
1207.00 0.00594
1207.10 0.00594
1207.20 0.00593
1207.30 0.00593
1207.40 0.00592
1207.50 0.00592
1207.60 0.00592
1207.70 0.00591
1207.80 0.00591
1207.90 0.00590
1208.00 0.00590
1208.10 0.00590
1208.20 0.00589
1208.30 0.00589
1208.40 0.00588
1208.50 0.00588
1208.60 0.00588
1208.70 0.00587
1208.80 0.00587
1208.90 0.00587
1209.00 0.00586
1209.10 0.00586
1209.20 0.00586
1209.30 0.00586
1209.40 0.00585
1209.50 0.00585
1209.60 0.00585
1209.70 0.00585
1209.80 0.00584
1209.90 0.00584
1210.00 0.00584
1210.10 0.00584
1210.20 0.00584
1210.30 0.00583
1210.40 0.00583
1210.50 0.00583
1210.60 0.00583
1210.70 0.00583
1210.80 0.00583
1210.90 0.00583
1211.00 0.00583
1211.10 0.00583
1211.20 0.00582
1211.30 0.00582
1211.40 0.00582
1211.50 0.00582
1211.60 0.00582
1211.70 0.00582
1211.80 0.00582
1211.90 0.00582
1212.00 0.00582
1212.10 0.00583
1212.20 0.00583
1212.30 0.00583
1212.40 0.00583
1212.50 0.00583
1212.60 0.00583
1212.70 0.00583
1212.80 0.00583
1212.90 0.00583
1213.00 0.00584
1213.10 0.00584
1213.20 0.00584
1213.30 0.00584
1213.40 0.00584
1213.50 0.00585
1213.60 0.00585
1213.70 0.00585
1213.80 0.00585
1213.90 0.00586
1214.00 0.00586
1214.10 0.00586
1214.20 0.00587
1214.30 0.00587
1214.40 0.00587
1214.50 0.00588
1214.60 0.00588
1214.70 0.00589
1214.80 0.00589
1214.90 0.00589
1215.00 0.00590
1215.10 0.00590
1215.20 0.00591
1215.30 0.00591
1215.40 0.00592
1215.50 0.00592
1215.60 0.00593
1215.70 0.00593
1215.80 0.00594
1215.90 0.00594
1216.00 0.00595
1216.10 0.00596
1216.20 0.00596
1216.30 0.00597
1216.40 0.00597
1216.50 0.00598
1216.60 0.00599
1216.70 0.00599
1216.80 0.00600
1216.90 0.00601
1217.00 0.00601
1217.10 0.00602
1217.20 0.00603
1217.30 0.00603
1217.40 0.00604
1217.50 0.00605
1217.60 0.00606
1217.70 0.00606
1217.80 0.00607
1217.90 0.00608
1218.00 0.00609
1218.10 0.00610
1218.20 0.00610
1218.30 0.00611
1218.40 0.00612
1218.50 0.00613
1218.60 0.00614
1218.70 0.00615
1218.80 0.00616
1218.90 0.00616
1219.00 0.00617
1219.10 0.00618
1219.20 0.00619
1219.30 0.00620
1219.40 0.00621
1219.50 0.00622
1219.60 0.00623
1219.70 0.00624
1219.80 0.00625
1219.90 0.00626
1220.00 0.00627
1220.10 0.00628
1220.20 0.00629
1220.30 0.00630
1220.40 0.00631
1220.50 0.00632
1220.60 0.00633
1220.70 0.00634
1220.80 0.00635
1220.90 0.00636
1221.00 0.00637
1221.10 0.00638
1221.20 0.00639
1221.30 0.00640
1221.40 0.00641
1221.50 0.00642
1221.60 0.00643
1221.70 0.00644
1221.80 0.00646
1221.90 0.00647
1222.00 0.00648
1222.10 0.00649
1222.20 0.00650
1222.30 0.00651
1222.40 0.00652
1222.50 0.00653
1222.60 0.00654
1222.70 0.00655
1222.80 0.00657
1222.90 0.00658
1223.00 0.00659
1223.10 0.00660
1223.20 0.00661
1223.30 0.00662
1223.40 0.00663
1223.50 0.00664
1223.60 0.00666
1223.70 0.00667
1223.80 0.00668
1223.90 0.00669
1224.00 0.00670
1224.10 0.00671
1224.20 0.00672
1224.30 0.00673
1224.40 0.00674
1224.50 0.00676
1224.60 0.00677
1224.70 0.00678
1224.80 0.00679
1224.90 0.00680
1225.00 0.00681
1225.10 0.00682
1225.20 0.00683
1225.30 0.00684
1225.40 0.00685
1225.50 0.00686
1225.60 0.00688
1225.70 0.00689
1225.80 0.00690
1225.90 0.00691
1226.00 0.00692
1226.10 0.00693
1226.20 0.00694
1226.30 0.00695
1226.40 0.00696
1226.50 0.00697
1226.60 0.00698
1226.70 0.00699
1226.80 0.00700
1226.90 0.00701
1227.00 0.00702
1227.10 0.00703
1227.20 0.00704
1227.30 0.00705
1227.40 0.00706
1227.50 0.00707
1227.60 0.00708
1227.70 0.00709
1227.80 0.00710
1227.90 0.00710
1228.00 0.00711
1228.10 0.00712
1228.20 0.00713
1228.30 0.00714
1228.40 0.00715
1228.50 0.00716
1228.60 0.00716
1228.70 0.00717
1228.80 0.00718
1228.90 0.00719
1229.00 0.00720
1229.10 0.00720
1229.20 0.00721
1229.30 0.00722
1229.40 0.00723
1229.50 0.00723
1229.60 0.00724
1229.70 0.00725
1229.80 0.00726
1229.90 0.00726
1230.00 0.00727
1230.10 0.00728
1230.20 0.00728
1230.30 0.00729
1230.40 0.00729
1230.50 0.00730
1230.60 0.00731
1230.70 0.00731
1230.80 0.00732
1230.90 0.00732
1231.00 0.00733
1231.10 0.00733
1231.20 0.00734
1231.30 0.00734
1231.40 0.00735
1231.50 0.00735
1231.60 0.00735
1231.70 0.00736
1231.80 0.00736
1231.90 0.00737
1232.00 0.00737
1232.10 0.00737
1232.20 0.00738
1232.30 0.00738
1232.40 0.00738
1232.50 0.00739
1232.60 0.00739
1232.70 0.00739
1232.80 0.00739
1232.90 0.00739
1233.00 0.00740
1233.10 0.00740
1233.20 0.00740
1233.30 0.00740
1233.40 0.00740
1233.50 0.00740
1233.60 0.00740
1233.70 0.00740
1233.80 0.00741
1233.90 0.00741
1234.00 0.00741
1234.10 0.00741
1234.20 0.00741
1234.30 0.00740
1234.40 0.00740
1234.50 0.00740
1234.60 0.00740
1234.70 0.00740
1234.80 0.00740
1234.90 0.00740
1235.00 0.00740
1235.10 0.00739
1235.20 0.00739
1235.30 0.00739
1235.40 0.00739
1235.50 0.00739
1235.60 0.00738
1235.70 0.00738
1235.80 0.00738
1235.90 0.00737
1236.00 0.00737
1236.10 0.00737
1236.20 0.00736
1236.30 0.00736
1236.40 0.00735
1236.50 0.00735
1236.60 0.00734
1236.70 0.00734
1236.80 0.00733
1236.90 0.00733
1237.00 0.00732
1237.10 0.00732
1237.20 0.00731
1237.30 0.00731
1237.40 0.00730
1237.50 0.00729
1237.60 0.00729
1237.70 0.00728
1237.80 0.00727
1237.90 0.00727
1238.00 0.00726
1238.10 0.00725
1238.20 0.00724
1238.30 0.00724
1238.40 0.00723
1238.50 0.00722
1238.60 0.00721
1238.70 0.00720
1238.80 0.00719
1238.90 0.00719
1239.00 0.00718
1239.10 0.00717
1239.20 0.00716
1239.30 0.00715
1239.40 0.00714
1239.50 0.00713
1239.60 0.00712
1239.70 0.00711
1239.80 0.00710
1239.90 0.00709
1240.00 0.00708
1240.10 0.00707
1240.20 0.00706
1240.30 0.00704
1240.40 0.00703
1240.50 0.00702
1240.60 0.00701
1240.70 0.00700
1240.80 0.00699
1240.90 0.00697
1241.00 0.00696
1241.10 0.00695
1241.20 0.00694
1241.30 0.00692
1241.40 0.00691
1241.50 0.00690
1241.60 0.00689
1241.70 0.00687
1241.80 0.00686
1241.90 0.00685
1242.00 0.00683
1242.10 0.00682
1242.20 0.00680
1242.30 0.00679
1242.40 0.00678
1242.50 0.00676
1242.60 0.00675
1242.70 0.00673
1242.80 0.00672
1242.90 0.00670
1243.00 0.00669
1243.10 0.00667
1243.20 0.00666
1243.30 0.00664
1243.40 0.00663
1243.50 0.00661
1243.60 0.00659
1243.70 0.00658
1243.80 0.00656
1243.90 0.00655
1244.00 0.00653
1244.10 0.00651
1244.20 0.00650
1244.30 0.00648
1244.40 0.00647
1244.50 0.00645
1244.60 0.00643
1244.70 0.00642
1244.80 0.00640
1244.90 0.00638
1245.00 0.00636
1245.10 0.00635
1245.20 0.00633
1245.30 0.00631
1245.40 0.00629
1245.50 0.00628
1245.60 0.00626
1245.70 0.00624
1245.80 0.00622
1245.90 0.00621
1246.00 0.00619
1246.10 0.00617
1246.20 0.00615
1246.30 0.00613
1246.40 0.00612
1246.50 0.00610
1246.60 0.00608
1246.70 0.00606
1246.80 0.00604
1246.90 0.00602
1247.00 0.00601
1247.10 0.00599
1247.20 0.00597
1247.30 0.00595
1247.40 0.00593
1247.50 0.00591
1247.60 0.00589
1247.70 0.00587
1247.80 0.00586
1247.90 0.00584
1248.00 0.00582
1248.10 0.00580
1248.20 0.00578
1248.30 0.00576
1248.40 0.00574
1248.50 0.00572
1248.60 0.00570
1248.70 0.00568
1248.80 0.00566
1248.90 0.00564
1249.00 0.00563
1249.10 0.00561
1249.20 0.00559
1249.30 0.00557
1249.40 0.00555
1249.50 0.00553
1249.60 0.00551
1249.70 0.00549
1249.80 0.00547
1249.90 0.00545
1250.00 0.00543
1250.10 0.00541
1250.20 0.00539
1250.30 0.00537
1250.40 0.00535
1250.50 0.00533
1250.60 0.00531
1250.70 0.00530
1250.80 0.00528
1250.90 0.00526
1251.00 0.00524
1251.10 0.00522
1251.20 0.00520
1251.30 0.00518
1251.40 0.00516
1251.50 0.00514
1251.60 0.00512
1251.70 0.00510
1251.80 0.00508
1251.90 0.00506
1252.00 0.00504
1252.10 0.00503
1252.20 0.00501
1252.30 0.00499
1252.40 0.00497
1252.50 0.00495
1252.60 0.00493
1252.70 0.00491
1252.80 0.00489
1252.90 0.00487
1253.00 0.00485
1253.10 0.00484
1253.20 0.00482
1253.30 0.00480
1253.40 0.00478
1253.50 0.00476
1253.60 0.00474
1253.70 0.00472
1253.80 0.00471
1253.90 0.00469
1254.00 0.00467
1254.10 0.00465
1254.20 0.00463
1254.30 0.00461
1254.40 0.00460
1254.50 0.00458
1254.60 0.00456
1254.70 0.00454
1254.80 0.00452
1254.90 0.00451
1255.00 0.00449
1255.10 0.00447
1255.20 0.00445
1255.30 0.00444
1255.40 0.00442
1255.50 0.00440
1255.60 0.00438
1255.70 0.00437
1255.80 0.00435
1255.90 0.00433
1256.00 0.00432
1256.10 0.00430
1256.20 0.00428
1256.30 0.00427
1256.40 0.00425
1256.50 0.00423
1256.60 0.00422
1256.70 0.00420
1256.80 0.00418
1256.90 0.00417
1257.00 0.00415
1257.10 0.00413
1257.20 0.00412
1257.30 0.00410
1257.40 0.00409
1257.50 0.00407
1257.60 0.00406
1257.70 0.00404
1257.80 0.00402
1257.90 0.00401
1258.00 0.00399
1258.10 0.00398
1258.20 0.00396
1258.30 0.00395
1258.40 0.00393
1258.50 0.00392
1258.60 0.00391
1258.70 0.00389
1258.80 0.00388
1258.90 0.00386
1259.00 0.00385
1259.10 0.00383
1259.20 0.00382
1259.30 0.00381
1259.40 0.00379
1259.50 0.00378
1259.60 0.00376
1259.70 0.00375
1259.80 0.00374
1259.90 0.00372
1260.00 0.00371
1260.10 0.00370
1260.20 0.00369
1260.30 0.00367
1260.40 0.00366
1260.50 0.00365
1260.60 0.00363
1260.70 0.00362
1260.80 0.00361
1260.90 0.00360
1261.00 0.00359
1261.10 0.00357
1261.20 0.00356
1261.30 0.00355
1261.40 0.00354
1261.50 0.00353
1261.60 0.00352
1261.70 0.00350
1261.80 0.00349
1261.90 0.00348
1262.00 0.00347
1262.10 0.00346
1262.20 0.00345
1262.30 0.00344
1262.40 0.00343
1262.50 0.00342
1262.60 0.00341
1262.70 0.00340
1262.80 0.00339
1262.90 0.00338
1263.00 0.00337
1263.10 0.00336
1263.20 0.00335
1263.30 0.00334
1263.40 0.00333
1263.50 0.00332
1263.60 0.00331
1263.70 0.00331
1263.80 0.00330
1263.90 0.00329
1264.00 0.00328
1264.10 0.00327
1264.20 0.00326
1264.30 0.00326
1264.40 0.00325
1264.50 0.00324
1264.60 0.00323
1264.70 0.00322
1264.80 0.00322
1264.90 0.00321
1265.00 0.00320
1265.10 0.00319
1265.20 0.00319
1265.30 0.00318
1265.40 0.00317
1265.50 0.00317
1265.60 0.00316
1265.70 0.00315
1265.80 0.00315
1265.90 0.00314
1266.00 0.00314
1266.10 0.00313
1266.20 0.00312
1266.30 0.00312
1266.40 0.00311
1266.50 0.00311
1266.60 0.00310
1266.70 0.00310
1266.80 0.00309
1266.90 0.00309
1267.00 0.00308
1267.10 0.00308
1267.20 0.00307
1267.30 0.00307
1267.40 0.00307
1267.50 0.00306
1267.60 0.00306
1267.70 0.00305
1267.80 0.00305
1267.90 0.00305
1268.00 0.00304
1268.10 0.00304
1268.20 0.00303
1268.30 0.00303
1268.40 0.00303
1268.50 0.00303
1268.60 0.00302
1268.70 0.00302
1268.80 0.00302
1268.90 0.00301
1269.00 0.00301
1269.10 0.00301
1269.20 0.00301
1269.30 0.00301
1269.40 0.00300
1269.50 0.00300
1269.60 0.00300
1269.70 0.00300
1269.80 0.00300
1269.90 0.00300
1270.00 0.00299
1270.10 0.00299
1270.20 0.00299
1270.30 0.00299
1270.40 0.00299
1270.50 0.00299
1270.60 0.00299
1270.70 0.00299
1270.80 0.00299
1270.90 0.00299
1271.00 0.00299
1271.10 0.00299
1271.20 0.00299
1271.30 0.00299
1271.40 0.00299
1271.50 0.00299
1271.60 0.00299
1271.70 0.00299
1271.80 0.00299
1271.90 0.00299
1272.00 0.00299
1272.10 0.00299
1272.20 0.00299
1272.30 0.00299
1272.40 0.00300
1272.50 0.00300
1272.60 0.00300
1272.70 0.00300
1272.80 0.00300
1272.90 0.00300
1273.00 0.00300
1273.10 0.00301
1273.20 0.00301
1273.30 0.00301
1273.40 0.00301
1273.50 0.00301
1273.60 0.00302
1273.70 0.00302
1273.80 0.00302
1273.90 0.00302
1274.00 0.00303
1274.10 0.00303
1274.20 0.00303
1274.30 0.00304
1274.40 0.00304
1274.50 0.00304
1274.60 0.00305
1274.70 0.00305
1274.80 0.00305
1274.90 0.00306
1275.00 0.00306
1275.10 0.00306
1275.20 0.00307
1275.30 0.00307
1275.40 0.00307
1275.50 0.00308
1275.60 0.00308
1275.70 0.00309
1275.80 0.00309
1275.90 0.00309
1276.00 0.00310
1276.10 0.00310
1276.20 0.00311
1276.30 0.00311
1276.40 0.00312
1276.50 0.00312
1276.60 0.00313
1276.70 0.00313
1276.80 0.00313
1276.90 0.00314
1277.00 0.00314
1277.10 0.00315
1277.20 0.00315
1277.30 0.00316
1277.40 0.00316
1277.50 0.00317
1277.60 0.00318
1277.70 0.00318
1277.80 0.00319
1277.90 0.00319
1278.00 0.00320
1278.10 0.00320
1278.20 0.00321
1278.30 0.00321
1278.40 0.00322
1278.50 0.00323
1278.60 0.00323
1278.70 0.00324
1278.80 0.00324
1278.90 0.00325
1279.00 0.00325
1279.10 0.00326
1279.20 0.00327
1279.30 0.00327
1279.40 0.00328
1279.50 0.00329
1279.60 0.00329
1279.70 0.00330
1279.80 0.00330
1279.90 0.00331
1280.00 0.00332
1280.10 0.00332
1280.20 0.00333
1280.30 0.00334
1280.40 0.00334
1280.50 0.00335
1280.60 0.00336
1280.70 0.00336
1280.80 0.00337
1280.90 0.00338
1281.00 0.00338
1281.10 0.00339
1281.20 0.00340
1281.30 0.00340
1281.40 0.00341
1281.50 0.00342
1281.60 0.00342
1281.70 0.00343
1281.80 0.00344
1281.90 0.00344
1282.00 0.00345
1282.10 0.00346
1282.20 0.00346
1282.30 0.00347
1282.40 0.00348
1282.50 0.00348
1282.60 0.00349
1282.70 0.00350
1282.80 0.00350
1282.90 0.00351
1283.00 0.00352
1283.10 0.00352
1283.20 0.00353
1283.30 0.00354
1283.40 0.00354
1283.50 0.00355
1283.60 0.00356
1283.70 0.00357
1283.80 0.00357
1283.90 0.00358
1284.00 0.00359
1284.10 0.00359
1284.20 0.00360
1284.30 0.00361
1284.40 0.00361
1284.50 0.00362
1284.60 0.00363
1284.70 0.00363
1284.80 0.00364
1284.90 0.00365
1285.00 0.00365
1285.10 0.00366
1285.20 0.00367
1285.30 0.00367
1285.40 0.00368
1285.50 0.00369
1285.60 0.00369
1285.70 0.00370
1285.80 0.00371
1285.90 0.00371
1286.00 0.00372
1286.10 0.00373
1286.20 0.00373
1286.30 0.00374
1286.40 0.00375
1286.50 0.00375
1286.60 0.00376
1286.70 0.00377
1286.80 0.00377
1286.90 0.00378
1287.00 0.00378
1287.10 0.00379
1287.20 0.00380
1287.30 0.00380
1287.40 0.00381
1287.50 0.00381
1287.60 0.00382
1287.70 0.00383
1287.80 0.00383
1287.90 0.00384
1288.00 0.00384
1288.10 0.00385
1288.20 0.00386
1288.30 0.00386
1288.40 0.00387
1288.50 0.00387
1288.60 0.00388
1288.70 0.00388
1288.80 0.00389
1288.90 0.00389
1289.00 0.00390
1289.10 0.00391
1289.20 0.00391
1289.30 0.00392
1289.40 0.00392
1289.50 0.00393
1289.60 0.00393
1289.70 0.00394
1289.80 0.00394
1289.90 0.00395
1290.00 0.00395
1290.10 0.00396
1290.20 0.00396
1290.30 0.00397
1290.40 0.00397
1290.50 0.00398
1290.60 0.00398
1290.70 0.00398
1290.80 0.00399
1290.90 0.00399
1291.00 0.00400
1291.10 0.00400
1291.20 0.00401
1291.30 0.00401
1291.40 0.00401
1291.50 0.00402
1291.60 0.00402
1291.70 0.00403
1291.80 0.00403
1291.90 0.00403
1292.00 0.00404
1292.10 0.00404
1292.20 0.00405
1292.30 0.00405
1292.40 0.00405
1292.50 0.00406
1292.60 0.00406
1292.70 0.00406
1292.80 0.00407
1292.90 0.00407
1293.00 0.00407
1293.10 0.00407
1293.20 0.00408
1293.30 0.00408
1293.40 0.00408
1293.50 0.00409
1293.60 0.00409
1293.70 0.00409
1293.80 0.00409
1293.90 0.00410
1294.00 0.00410
1294.10 0.00410
1294.20 0.00410
1294.30 0.00411
1294.40 0.00411
1294.50 0.00411
1294.60 0.00411
1294.70 0.00411
1294.80 0.00412
1294.90 0.00412
1295.00 0.00412
1295.10 0.00412
1295.20 0.00412
1295.30 0.00413
1295.40 0.00413
1295.50 0.00413
1295.60 0.00413
1295.70 0.00413
1295.80 0.00413
1295.90 0.00413
1296.00 0.00414
1296.10 0.00414
1296.20 0.00414
1296.30 0.00414
1296.40 0.00414
1296.50 0.00414
1296.60 0.00414
1296.70 0.00414
1296.80 0.00414
1296.90 0.00414
1297.00 0.00414
1297.10 0.00414
1297.20 0.00414
1297.30 0.00414
1297.40 0.00415
1297.50 0.00415
1297.60 0.00415
1297.70 0.00415
1297.80 0.00415
1297.90 0.00415
1298.00 0.00415
1298.10 0.00415
1298.20 0.00415
1298.30 0.00415
1298.40 0.00414
1298.50 0.00414
1298.60 0.00414
1298.70 0.00414
1298.80 0.00414
1298.90 0.00414
1299.00 0.00414
1299.10 0.00414
1299.20 0.00414
1299.30 0.00414
1299.40 0.00414
1299.50 0.00414
1299.60 0.00414
1299.70 0.00414
1299.80 0.00414
1299.90 0.00413
1300.00 0.00413
1300.10 0.00413
1300.20 0.00413
1300.30 0.00413
1300.40 0.00413
1300.50 0.00413
1300.60 0.00413
1300.70 0.00412
1300.80 0.00412
1300.90 0.00412
1301.00 0.00412
1301.10 0.00412
1301.20 0.00412
1301.30 0.00411
1301.40 0.00411
1301.50 0.00411
1301.60 0.00411
1301.70 0.00411
1301.80 0.00410
1301.90 0.00410
1302.00 0.00410
1302.10 0.00410
1302.20 0.00410
1302.30 0.00409
1302.40 0.00409
1302.50 0.00409
1302.60 0.00409
1302.70 0.00409
1302.80 0.00408
1302.90 0.00408
1303.00 0.00408
1303.10 0.00408
1303.20 0.00407
1303.30 0.00407
1303.40 0.00407
1303.50 0.00407
1303.60 0.00406
1303.70 0.00406
1303.80 0.00406
1303.90 0.00406
1304.00 0.00405
1304.10 0.00405
1304.20 0.00405
1304.30 0.00404
1304.40 0.00404
1304.50 0.00404
1304.60 0.00404
1304.70 0.00403
1304.80 0.00403
1304.90 0.00403
1305.00 0.00402
1305.10 0.00402
1305.20 0.00402
1305.30 0.00402
1305.40 0.00401
1305.50 0.00401
1305.60 0.00401
1305.70 0.00400
1305.80 0.00400
1305.90 0.00400
1306.00 0.00399
1306.10 0.00399
1306.20 0.00399
1306.30 0.00399
1306.40 0.00398
1306.50 0.00398
1306.60 0.00398
1306.70 0.00397
1306.80 0.00397
1306.90 0.00397
1307.00 0.00396
1307.10 0.00396
1307.20 0.00396
1307.30 0.00395
1307.40 0.00395
1307.50 0.00395
1307.60 0.00394
1307.70 0.00394
1307.80 0.00394
1307.90 0.00393
1308.00 0.00393
1308.10 0.00393
1308.20 0.00393
1308.30 0.00392
1308.40 0.00392
1308.50 0.00392
1308.60 0.00391
1308.70 0.00391
1308.80 0.00391
1308.90 0.00390
1309.00 0.00390
1309.10 0.00390
1309.20 0.00389
1309.30 0.00389
1309.40 0.00389
1309.50 0.00388
1309.60 0.00388
1309.70 0.00388
1309.80 0.00387
1309.90 0.00387
1310.00 0.00387
1310.10 0.00386
1310.20 0.00386
1310.30 0.00386
1310.40 0.00385
1310.50 0.00385
1310.60 0.00385
1310.70 0.00385
1310.80 0.00384
1310.90 0.00384
1311.00 0.00384
1311.10 0.00383
1311.20 0.00383
1311.30 0.00383
1311.40 0.00382
1311.50 0.00382
1311.60 0.00382
1311.70 0.00381
1311.80 0.00381
1311.90 0.00381
1312.00 0.00380
1312.10 0.00380
1312.20 0.00380
1312.30 0.00380
1312.40 0.00379
1312.50 0.00379
1312.60 0.00379
1312.70 0.00378
1312.80 0.00378
1312.90 0.00378
1313.00 0.00378
1313.10 0.00377
1313.20 0.00377
1313.30 0.00377
1313.40 0.00376
1313.50 0.00376
1313.60 0.00376
1313.70 0.00376
1313.80 0.00375
1313.90 0.00375
1314.00 0.00375
1314.10 0.00374
1314.20 0.00374
1314.30 0.00374
1314.40 0.00374
1314.50 0.00373
1314.60 0.00373
1314.70 0.00373
1314.80 0.00373
1314.90 0.00372
1315.00 0.00372
1315.10 0.00372
1315.20 0.00371
1315.30 0.00371
1315.40 0.00371
1315.50 0.00371
1315.60 0.00370
1315.70 0.00370
1315.80 0.00370
1315.90 0.00370
1316.00 0.00369
1316.10 0.00369
1316.20 0.00369
1316.30 0.00369
1316.40 0.00368
1316.50 0.00368
1316.60 0.00368
1316.70 0.00368
1316.80 0.00367
1316.90 0.00367
1317.00 0.00367
1317.10 0.00367
1317.20 0.00366
1317.30 0.00366
1317.40 0.00366
1317.50 0.00366
1317.60 0.00365
1317.70 0.00365
1317.80 0.00365
1317.90 0.00365
1318.00 0.00364
1318.10 0.00364
1318.20 0.00364
1318.30 0.00364
1318.40 0.00363
1318.50 0.00363
1318.60 0.00363
1318.70 0.00363
1318.80 0.00362
1318.90 0.00362
1319.00 0.00362
1319.10 0.00362
1319.20 0.00361
1319.30 0.00361
1319.40 0.00361
1319.50 0.00361
1319.60 0.00361
1319.70 0.00360
1319.80 0.00360
1319.90 0.00360
1320.00 0.00360
1320.10 0.00359
1320.20 0.00359
1320.30 0.00359
1320.40 0.00359
1320.50 0.00358
1320.60 0.00358
1320.70 0.00358
1320.80 0.00358
1320.90 0.00357
1321.00 0.00357
1321.10 0.00357
1321.20 0.00357
1321.30 0.00356
1321.40 0.00356
1321.50 0.00356
1321.60 0.00356
1321.70 0.00355
1321.80 0.00355
1321.90 0.00355
1322.00 0.00354
1322.10 0.00354
1322.20 0.00354
1322.30 0.00354
1322.40 0.00353
1322.50 0.00353
1322.60 0.00353
1322.70 0.00353
1322.80 0.00352
1322.90 0.00352
1323.00 0.00352
1323.10 0.00351
1323.20 0.00351
1323.30 0.00351
1323.40 0.00351
1323.50 0.00350
1323.60 0.00350
1323.70 0.00350
1323.80 0.00349
1323.90 0.00349
1324.00 0.00349
1324.10 0.00348
1324.20 0.00348
1324.30 0.00348
1324.40 0.00347
1324.50 0.00347
1324.60 0.00347
1324.70 0.00346
1324.80 0.00346
1324.90 0.00346
1325.00 0.00345
1325.10 0.00345
1325.20 0.00345
1325.30 0.00344
1325.40 0.00344
1325.50 0.00344
1325.60 0.00343
1325.70 0.00343
1325.80 0.00343
1325.90 0.00342
1326.00 0.00342
1326.10 0.00342
1326.20 0.00341
1326.30 0.00341
1326.40 0.00340
1326.50 0.00340
1326.60 0.00340
1326.70 0.00339
1326.80 0.00339
1326.90 0.00338
1327.00 0.00338
1327.10 0.00338
1327.20 0.00337
1327.30 0.00337
1327.40 0.00336
1327.50 0.00336
1327.60 0.00335
1327.70 0.00335
1327.80 0.00335
1327.90 0.00334
1328.00 0.00334
1328.10 0.00333
1328.20 0.00333
1328.30 0.00332
1328.40 0.00332
1328.50 0.00331
1328.60 0.00331
1328.70 0.00330
1328.80 0.00330
1328.90 0.00329
1329.00 0.00329
1329.10 0.00328
1329.20 0.00328
1329.30 0.00327
1329.40 0.00327
1329.50 0.00326
1329.60 0.00326
1329.70 0.00325
1329.80 0.00325
1329.90 0.00324
1330.00 0.00324
1330.10 0.00323
1330.20 0.00323
1330.30 0.00322
1330.40 0.00321
1330.50 0.00321
1330.60 0.00320
1330.70 0.00320
1330.80 0.00319
1330.90 0.00318
1331.00 0.00318
1331.10 0.00317
1331.20 0.00317
1331.30 0.00316
1331.40 0.00315
1331.50 0.00315
1331.60 0.00314
1331.70 0.00314
1331.80 0.00313
1331.90 0.00312
1332.00 0.00312
1332.10 0.00311
1332.20 0.00310
1332.30 0.00310
1332.40 0.00309
1332.50 0.00308
1332.60 0.00308
1332.70 0.00307
1332.80 0.00306
1332.90 0.00305
1333.00 0.00305
1333.10 0.00304
1333.20 0.00303
1333.30 0.00303
1333.40 0.00302
1333.50 0.00301
1333.60 0.00300
1333.70 0.00300
1333.80 0.00299
1333.90 0.00298
1334.00 0.00297
1334.10 0.00297
1334.20 0.00296
1334.30 0.00295
1334.40 0.00294
1334.50 0.00294
1334.60 0.00293
1334.70 0.00292
1334.80 0.00291
1334.90 0.00290
1335.00 0.00290
1335.10 0.00289
1335.20 0.00288
1335.30 0.00287
1335.40 0.00286
1335.50 0.00285
1335.60 0.00285
1335.70 0.00284
1335.80 0.00283
1335.90 0.00282
1336.00 0.00281
1336.10 0.00280
1336.20 0.00280
1336.30 0.00279
1336.40 0.00278
1336.50 0.00277
1336.60 0.00276
1336.70 0.00275
1336.80 0.00274
1336.90 0.00273
1337.00 0.00272
1337.10 0.00272
1337.20 0.00271
1337.30 0.00270
1337.40 0.00269
1337.50 0.00268
1337.60 0.00267
1337.70 0.00266
1337.80 0.00265
1337.90 0.00264
1338.00 0.00263
1338.10 0.00262
1338.20 0.00261
1338.30 0.00260
1338.40 0.00259
1338.50 0.00258
1338.60 0.00257
1338.70 0.00257
1338.80 0.00256
1338.90 0.00255
1339.00 0.00254
1339.10 0.00253
1339.20 0.00252
1339.30 0.00251
1339.40 0.00250
1339.50 0.00249
1339.60 0.00248
1339.70 0.00247
1339.80 0.00246
1339.90 0.00245
1340.00 0.00244
1340.10 0.00243
1340.20 0.00242
1340.30 0.00241
1340.40 0.00240
1340.50 0.00239
1340.60 0.00238
1340.70 0.00237
1340.80 0.00235
1340.90 0.00234
1341.00 0.00233
1341.10 0.00232
1341.20 0.00231
1341.30 0.00230
1341.40 0.00229
1341.50 0.00228
1341.60 0.00227
1341.70 0.00226
1341.80 0.00225
1341.90 0.00224
1342.00 0.00223
1342.10 0.00222
1342.20 0.00221
1342.30 0.00220
1342.40 0.00219
1342.50 0.00218
1342.60 0.00217
1342.70 0.00216
1342.80 0.00214
1342.90 0.00213
1343.00 0.00212
1343.10 0.00211
1343.20 0.00210
1343.30 0.00209
1343.40 0.00208
1343.50 0.00207
1343.60 0.00206
1343.70 0.00205
1343.80 0.00204
1343.90 0.00203
1344.00 0.00202
1344.10 0.00200
1344.20 0.00199
1344.30 0.00198
1344.40 0.00197
1344.50 0.00196
1344.60 0.00195
1344.70 0.00194
1344.80 0.00193
1344.90 0.00192
1345.00 0.00191
1345.10 0.00190
1345.20 0.00189
1345.30 0.00188
1345.40 0.00186
1345.50 0.00185
1345.60 0.00184
1345.70 0.00183
1345.80 0.00182
1345.90 0.00181
1346.00 0.00180
1346.10 0.00179
1346.20 0.00178
1346.30 0.00177
1346.40 0.00176
1346.50 0.00175
1346.60 0.00174
1346.70 0.00172
1346.80 0.00171
1346.90 0.00170
1347.00 0.00169
1347.10 0.00168
1347.20 0.00167
1347.30 0.00166
1347.40 0.00165
1347.50 0.00164
1347.60 0.00163
1347.70 0.00162
1347.80 0.00161
1347.90 0.00160
1348.00 0.00159
1348.10 0.00158
1348.20 0.00157
1348.30 0.00155
1348.40 0.00154
1348.50 0.00153
1348.60 0.00152
1348.70 0.00151
1348.80 0.00150
1348.90 0.00149
1349.00 0.00148
1349.10 0.00147
1349.20 0.00146
1349.30 0.00145
1349.40 0.00144
1349.50 0.00143
1349.60 0.00142
1349.70 0.00141
1349.80 0.00140
1349.90 0.00139
1350.00 0.00138
1350.10 0.00137
1350.20 0.00136
1350.30 0.00135
1350.40 0.00134
1350.50 0.00133
1350.60 0.00132
1350.70 0.00131
1350.80 0.00130
1350.90 0.00129
1351.00 0.00128
1351.10 0.00127
1351.20 0.00126
1351.30 0.00125
1351.40 0.00124
1351.50 0.00123
1351.60 0.00122
1351.70 0.00121
1351.80 0.00120
1351.90 0.00120
1352.00 0.00119
1352.10 0.00118
1352.20 0.00117
1352.30 0.00116
1352.40 0.00115
1352.50 0.00114
1352.60 0.00113
1352.70 0.00112
1352.80 0.00111
1352.90 0.00110
1353.00 0.00109
1353.10 0.00108
1353.20 0.00108
1353.30 0.00107
1353.40 0.00106
1353.50 0.00105
1353.60 0.00104
1353.70 0.00103
1353.80 0.00102
1353.90 0.00101
1354.00 0.00100
1354.10 0.00100
1354.20 0.00099
1354.30 0.00098
1354.40 0.00097
1354.50 0.00096
1354.60 0.00095
1354.70 0.00095
1354.80 0.00094
1354.90 0.00093
1355.00 0.00092
1355.10 0.00091
1355.20 0.00090
1355.30 0.00090
1355.40 0.00089
1355.50 0.00088
1355.60 0.00087
1355.70 0.00086
1355.80 0.00086
1355.90 0.00085
1356.00 0.00084
1356.10 0.00083
1356.20 0.00082
1356.30 0.00082
1356.40 0.00081
1356.50 0.00080
1356.60 0.00079
1356.70 0.00079
1356.80 0.00078
1356.90 0.00077
1357.00 0.00076
1357.10 0.00076
1357.20 0.00075
1357.30 0.00074
1357.40 0.00074
1357.50 0.00073
1357.60 0.00072
1357.70 0.00071
1357.80 0.00071
1357.90 0.00070
1358.00 0.00069
1358.10 0.00069
1358.20 0.00068
1358.30 0.00067
1358.40 0.00067
1358.50 0.00066
1358.60 0.00065
1358.70 0.00065
1358.80 0.00064
1358.90 0.00063
1359.00 0.00063
1359.10 0.00062
1359.20 0.00061
1359.30 0.00061
1359.40 0.00060
1359.50 0.00059
1359.60 0.00059
1359.70 0.00058
1359.80 0.00058
1359.90 0.00057
1360.00 0.00056
1360.10 0.00056
1360.20 0.00055
1360.30 0.00055
1360.40 0.00054
1360.50 0.00053
1360.60 0.00053
1360.70 0.00052
1360.80 0.00052
1360.90 0.00051
1361.00 0.00051
1361.10 0.00050
1361.20 0.00049
1361.30 0.00049
1361.40 0.00048
1361.50 0.00048
1361.60 0.00047
1361.70 0.00047
1361.80 0.00046
1361.90 0.00046
1362.00 0.00045
1362.10 0.00045
1362.20 0.00044
1362.30 0.00044
1362.40 0.00043
1362.50 0.00043
1362.60 0.00042
1362.70 0.00042
1362.80 0.00041
1362.90 0.00041
1363.00 0.00040
1363.10 0.00040
1363.20 0.00039
1363.30 0.00039
1363.40 0.00038
1363.50 0.00038
1363.60 0.00038
1363.70 0.00037
1363.80 0.00037
1363.90 0.00036
1364.00 0.00036
1364.10 0.00035
1364.20 0.00035
1364.30 0.00035
1364.40 0.00034
1364.50 0.00034
1364.60 0.00033
1364.70 0.00033
1364.80 0.00033
1364.90 0.00032
1365.00 0.00032
1365.10 0.00031
1365.20 0.00031
1365.30 0.00031
1365.40 0.00030
1365.50 0.00030
1365.60 0.00029
1365.70 0.00029
1365.80 0.00029
1365.90 0.00028
1366.00 0.00028
1366.10 0.00028
1366.20 0.00027
1366.30 0.00027
1366.40 0.00027
1366.50 0.00026
1366.60 0.00026
1366.70 0.00026
1366.80 0.00025
1366.90 0.00025
1367.00 0.00025
1367.10 0.00024
1367.20 0.00024
1367.30 0.00024
1367.40 0.00023
1367.50 0.00023
1367.60 0.00023
1367.70 0.00022
1367.80 0.00022
1367.90 0.00022
1368.00 0.00022
1368.10 0.00021
1368.20 0.00021
1368.30 0.00021
1368.40 0.00020
1368.50 0.00020
1368.60 0.00020
1368.70 0.00020
1368.80 0.00019
1368.90 0.00019
1369.00 0.00019
1369.10 0.00019
1369.20 0.00018
1369.30 0.00018
1369.40 0.00018
1369.50 0.00018
1369.60 0.00017
1369.70 0.00017
1369.80 0.00017
1369.90 0.00017
1370.00 0.00016
1370.10 0.00016
1370.20 0.00016
1370.30 0.00016
1370.40 0.00015
1370.50 0.00015
1370.60 0.00015
1370.70 0.00015
1370.80 0.00015
1370.90 0.00014
1371.00 0.00014
1371.10 0.00014
1371.20 0.00014
1371.30 0.00014
1371.40 0.00013
1371.50 0.00013
1371.60 0.00013
1371.70 0.00013
1371.80 0.00013
1371.90 0.00012
1372.00 0.00012
1372.10 0.00012
1372.20 0.00012
1372.30 0.00012
1372.40 0.00012
1372.50 0.00011
1372.60 0.00011
1372.70 0.00011
1372.80 0.00011
1372.90 0.00011
1373.00 0.00011
1373.10 0.00010
1373.20 0.00010
1373.30 0.00010
1373.40 0.00010
1373.50 0.00010
1373.60 0.00010
1373.70 0.00009
1373.80 0.00009
1373.90 0.00009
1374.00 0.00009
1374.10 0.00009
1374.20 0.00009
1374.30 0.00009
1374.40 0.00009
1374.50 0.00008
1374.60 0.00008
1374.70 0.00008
1374.80 0.00008
1374.90 0.00008
1375.00 0.00008
1375.10 0.00008
1375.20 0.00008
1375.30 0.00007
1375.40 0.00007
1375.50 0.00007
1375.60 0.00007
1375.70 0.00007
1375.80 0.00007
1375.90 0.00007
1376.00 0.00007
1376.10 0.00007
1376.20 0.00006
1376.30 0.00006
1376.40 0.00006
1376.50 0.00006
1376.60 0.00006
1376.70 0.00006
1376.80 0.00006
1376.90 0.00006
1377.00 0.00006
1377.10 0.00006
1377.20 0.00005
1377.30 0.00005
1377.40 0.00005
1377.50 0.00005
1377.60 0.00005
1377.70 0.00005
1377.80 0.00005
1377.90 0.00005
1378.00 0.00005
1378.10 0.00005
1378.20 0.00005
1378.30 0.00005
1378.40 0.00004
1378.50 0.00004
1378.60 0.00004
1378.70 0.00004
1378.80 0.00004
1378.90 0.00004
1379.00 0.00004
1379.10 0.00004
1379.20 0.00004
1379.30 0.00004
1379.40 0.00004
1379.50 0.00004
1379.60 0.00004
1379.70 0.00004
1379.80 0.00003
1379.90 0.00003
1380.00 0.00003
1380.10 0.00003
1380.20 0.00003
1380.30 0.00003
1380.40 0.00003
1380.50 0.00003
1380.60 0.00003
1380.70 0.00003
1380.80 0.00003
1380.90 0.00003
1381.00 0.00003
1381.10 0.00003
1381.20 0.00003
1381.30 0.00003
1381.40 0.00003
1381.50 0.00003
1381.60 0.00003
1381.70 0.00002
1381.80 0.00002
1381.90 0.00002
1382.00 0.00002
1382.10 0.00002
1382.20 0.00002
1382.30 0.00002
1382.40 0.00002
1382.50 0.00002
1382.60 0.00002
1382.70 0.00002
1382.80 0.00002
1382.90 0.00002
1383.00 0.00002
1383.10 0.00002
1383.20 0.00002
1383.30 0.00002
1383.40 0.00002
1383.50 0.00002
1383.60 0.00002
1383.70 0.00002
1383.80 0.00002
1383.90 0.00002
1384.00 0.00002
1384.10 0.00002
1384.20 0.00002
1384.30 0.00002
1384.40 0.00002
1384.50 0.00001
1384.60 0.00001
1384.70 0.00001
1384.80 0.00001
1384.90 0.00001
1385.00 0.00001
1385.10 0.00001
1385.20 0.00001
1385.30 0.00001
1385.40 0.00001
1385.50 0.00001
1385.60 0.00001
1385.70 0.00001
1385.80 0.00001
1385.90 0.00001
1386.00 0.00001
1386.10 0.00001
1386.20 0.00001
1386.30 0.00001
1386.40 0.00001
1386.50 0.00001
1386.60 0.00001
1386.70 0.00001
1386.80 0.00001
1386.90 0.00001
1387.00 0.00001
1387.10 0.00001
1387.20 0.00001
1387.30 0.00001
1387.40 0.00001
1387.50 0.00001
1387.60 0.00001
1387.70 0.00001
1387.80 0.00001
1387.90 0.00001
1388.00 0.00001
1388.10 0.00001
1388.20 0.00001
1388.30 0.00001
1388.40 0.00001
1388.50 0.00001
1388.60 0.00001
1388.70 0.00001
1388.80 0.00001
1388.90 0.00001
1389.00 0.00001
1389.10 0.00001
1389.20 0.00001
1389.30 0.00001
1389.40 0.00001
1389.50 0.00001
1389.60 0.00001
1389.70 0.00001
1389.80 0.00001
1389.90 0.00001
1390.00 0.00000
1390.10 0.00000
1390.20 0.00000
1390.30 0.00000
1390.40 0.00000
1390.50 0.00000
1390.60 0.00000
1390.70 0.00000
1390.80 0.00000
1390.90 0.00000
1391.00 0.00000
1391.10 0.00000
1391.20 0.00000
1391.30 0.00000
1391.40 0.00000
1391.50 0.00000
1391.60 0.00000
1391.70 0.00000
1391.80 0.00000
1391.90 0.00000
1392.00 0.00000
1392.10 0.00000
1392.20 0.00000
1392.30 0.00000
1392.40 0.00000
1392.50 0.00000
1392.60 0.00000
1392.70 0.00000
1392.80 0.00000
1392.90 0.00000
1393.00 0.00000
1393.10 0.00000
1393.20 0.00000
1393.30 0.00000
1393.40 0.00000
1393.50 0.00000
1393.60 0.00000
1393.70 0.00000
1393.80 0.00000
1393.90 0.00000
1394.00 0.00000
1394.10 0.00000
1394.20 0.00000
1394.30 0.00000
1394.40 0.00000
1394.50 0.00000
1394.60 0.00000
1394.70 0.00000
1394.80 0.00000
1394.90 0.00000
1395.00 0.00000
1395.10 0.00000
1395.20 0.00000
1395.30 0.00000
1395.40 0.00000
1395.50 0.00000
1395.60 0.00000
1395.70 0.00000
1395.80 0.00000
1395.90 0.00000
1396.00 0.00000
1396.10 0.00000
1396.20 0.00000
1396.30 0.00000
1396.40 0.00000
1396.50 0.00000
1396.60 0.00000
1396.70 0.00000
1396.80 0.00000
1396.90 0.00000
1397.00 0.00000
1397.10 0.00000
1397.20 0.00000
1397.30 0.00000
1397.40 0.00000
1397.50 0.00000
1397.60 0.00000
1397.70 0.00000
1397.80 0.00000
1397.90 0.00000
1398.00 0.00000
