# Huble Space Telescope Throughput
# By 03-28-2022
# https://www.stsci.edu/hst/instrumentation/wfc3/documentation/grism-resources/wfc3-g141-calibrations
# With modification: Throughput = sensitivity * unit('erg cm-2') * photon_energy / area
# Wavelength(nm) Throughput(0-1)
1040.00 0.00034
1040.10 0.00034
1040.20 0.00034
1040.30 0.00035
1040.40 0.00035
1040.50 0.00036
1040.60 0.00036
1040.70 0.00036
1040.80 0.00037
1040.90 0.00037
1041.00 0.00038
1041.10 0.00038
1041.20 0.00038
1041.30 0.00039
1041.40 0.00039
1041.50 0.00040
1041.60 0.00040
1041.70 0.00040
1041.80 0.00041
1041.90 0.00041
1042.00 0.00042
1042.10 0.00042
1042.20 0.00042
1042.30 0.00043
1042.40 0.00043
1042.50 0.00044
1042.60 0.00044
1042.70 0.00044
1042.80 0.00045
1042.90 0.00045
1043.00 0.00046
1043.10 0.00046
1043.20 0.00046
1043.30 0.00047
1043.40 0.00047
1043.50 0.00048
1043.60 0.00048
1043.70 0.00048
1043.80 0.00049
1043.90 0.00049
1044.00 0.00050
1044.10 0.00050
1044.20 0.00050
1044.30 0.00051
1044.40 0.00051
1044.50 0.00052
1044.60 0.00052
1044.70 0.00052
1044.80 0.00053
1044.90 0.00053
1045.00 0.00054
1045.10 0.00054
1045.20 0.00054
1045.30 0.00055
1045.40 0.00055
1045.50 0.00056
1045.60 0.00056
1045.70 0.00056
1045.80 0.00057
1045.90 0.00057
1046.00 0.00058
1046.10 0.00058
1046.20 0.00058
1046.30 0.00059
1046.40 0.00059
1046.50 0.00060
1046.60 0.00060
1046.70 0.00060
1046.80 0.00061
1046.90 0.00061
1047.00 0.00062
1047.10 0.00062
1047.20 0.00063
1047.30 0.00063
1047.40 0.00063
1047.50 0.00064
1047.60 0.00064
1047.70 0.00065
1047.80 0.00065
1047.90 0.00065
1048.00 0.00066
1048.10 0.00066
1048.20 0.00067
1048.30 0.00067
1048.40 0.00067
1048.50 0.00068
1048.60 0.00068
1048.70 0.00069
1048.80 0.00069
1048.90 0.00069
1049.00 0.00070
1049.10 0.00070
1049.20 0.00071
1049.30 0.00071
1049.40 0.00071
1049.50 0.00072
1049.60 0.00072
1049.70 0.00073
1049.80 0.00073
1049.90 0.00073
1050.00 0.00074
1050.10 0.00074
1050.20 0.00075
1050.30 0.00075
1050.40 0.00075
1050.50 0.00076
1050.60 0.00076
1050.70 0.00077
1050.80 0.00077
1050.90 0.00077
1051.00 0.00078
1051.10 0.00078
1051.20 0.00079
1051.30 0.00079
1051.40 0.00079
1051.50 0.00080
1051.60 0.00080
1051.70 0.00081
1051.80 0.00081
1051.90 0.00081
1052.00 0.00082
1052.10 0.00082
1052.20 0.00083
1052.30 0.00083
1052.40 0.00083
1052.50 0.00084
1052.60 0.00084
1052.70 0.00085
1052.80 0.00085
1052.90 0.00085
1053.00 0.00086
1053.10 0.00086
1053.20 0.00087
1053.30 0.00087
1053.40 0.00087
1053.50 0.00088
1053.60 0.00088
1053.70 0.00089
1053.80 0.00089
1053.90 0.00089
1054.00 0.00090
1054.10 0.00090
1054.20 0.00091
1054.30 0.00091
1054.40 0.00091
1054.50 0.00092
1054.60 0.00092
1054.70 0.00093
1054.80 0.00093
1054.90 0.00093
1055.00 0.00094
1055.10 0.00094
1055.20 0.00095
1055.30 0.00095
1055.40 0.00095
1055.50 0.00096
1055.60 0.00096
1055.70 0.00097
1055.80 0.00097
1055.90 0.00097
1056.00 0.00098
1056.10 0.00098
1056.20 0.00099
1056.30 0.00099
1056.40 0.00099
1056.50 0.00100
1056.60 0.00100
1056.70 0.00101
1056.80 0.00101
1056.90 0.00102
1057.00 0.00102
1057.10 0.00102
1057.20 0.00103
1057.30 0.00103
1057.40 0.00104
1057.50 0.00104
1057.60 0.00104
1057.70 0.00105
1057.80 0.00105
1057.90 0.00106
1058.00 0.00106
1058.10 0.00106
1058.20 0.00107
1058.30 0.00107
1058.40 0.00108
1058.50 0.00108
1058.60 0.00108
1058.70 0.00109
1058.80 0.00109
1058.90 0.00110
1059.00 0.00110
1059.10 0.00110
1059.20 0.00110
1059.30 0.00110
1059.40 0.00111
1059.50 0.00111
1059.60 0.00111
1059.70 0.00112
1059.80 0.00112
1059.90 0.00113
1060.00 0.00114
1060.10 0.00115
1060.20 0.00117
1060.30 0.00118
1060.40 0.00120
1060.50 0.00122
1060.60 0.00124
1060.70 0.00126
1060.80 0.00128
1060.90 0.00130
1061.00 0.00132
1061.10 0.00133
1061.20 0.00135
1061.30 0.00137
1061.40 0.00139
1061.50 0.00140
1061.60 0.00142
1061.70 0.00144
1061.80 0.00146
1061.90 0.00148
1062.00 0.00149
1062.10 0.00151
1062.20 0.00153
1062.30 0.00155
1062.40 0.00156
1062.50 0.00158
1062.60 0.00160
1062.70 0.00162
1062.80 0.00163
1062.90 0.00165
1063.00 0.00167
1063.10 0.00169
1063.20 0.00171
1063.30 0.00172
1063.40 0.00174
1063.50 0.00176
1063.60 0.00178
1063.70 0.00179
1063.80 0.00181
1063.90 0.00183
1064.00 0.00185
1064.10 0.00186
1064.20 0.00188
1064.30 0.00190
1064.40 0.00192
1064.50 0.00194
1064.60 0.00195
1064.70 0.00197
1064.80 0.00199
1064.90 0.00201
1065.00 0.00202
1065.10 0.00204
1065.20 0.00206
1065.30 0.00208
1065.40 0.00209
1065.50 0.00211
1065.60 0.00213
1065.70 0.00215
1065.80 0.00217
1065.90 0.00218
1066.00 0.00220
1066.10 0.00222
1066.20 0.00224
1066.30 0.00225
1066.40 0.00227
1066.50 0.00229
1066.60 0.00231
1066.70 0.00232
1066.80 0.00234
1066.90 0.00236
1067.00 0.00238
1067.10 0.00240
1067.20 0.00241
1067.30 0.00243
1067.40 0.00245
1067.50 0.00247
1067.60 0.00248
1067.70 0.00250
1067.80 0.00252
1067.90 0.00254
1068.00 0.00255
1068.10 0.00257
1068.20 0.00259
1068.30 0.00261
1068.40 0.00263
1068.50 0.00264
1068.60 0.00266
1068.70 0.00268
1068.80 0.00270
1068.90 0.00271
1069.00 0.00273
1069.10 0.00275
1069.20 0.00277
1069.30 0.00278
1069.40 0.00280
1069.50 0.00282
1069.60 0.00284
1069.70 0.00286
1069.80 0.00287
1069.90 0.00289
1070.00 0.00291
1070.10 0.00293
1070.20 0.00294
1070.30 0.00296
1070.40 0.00298
1070.50 0.00300
1070.60 0.00302
1070.70 0.00303
1070.80 0.00305
1070.90 0.00307
1071.00 0.00309
1071.10 0.00310
1071.20 0.00312
1071.30 0.00314
1071.40 0.00316
1071.50 0.00317
1071.60 0.00319
1071.70 0.00321
1071.80 0.00323
1071.90 0.00325
1072.00 0.00326
1072.10 0.00328
1072.20 0.00330
1072.30 0.00332
1072.40 0.00333
1072.50 0.00335
1072.60 0.00337
1072.70 0.00339
1072.80 0.00340
1072.90 0.00342
1073.00 0.00344
1073.10 0.00346
1073.20 0.00348
1073.30 0.00349
1073.40 0.00351
1073.50 0.00353
1073.60 0.00355
1073.70 0.00356
1073.80 0.00358
1073.90 0.00360
1074.00 0.00362
1074.10 0.00363
1074.20 0.00365
1074.30 0.00367
1074.40 0.00369
1074.50 0.00371
1074.60 0.00372
1074.70 0.00374
1074.80 0.00376
1074.90 0.00378
1075.00 0.00379
1075.10 0.00381
1075.20 0.00383
1075.30 0.00385
1075.40 0.00387
1075.50 0.00388
1075.60 0.00390
1075.70 0.00392
1075.80 0.00394
1075.90 0.00395
1076.00 0.00397
1076.10 0.00399
1076.20 0.00401
1076.30 0.00402
1076.40 0.00404
1076.50 0.00406
1076.60 0.00408
1076.70 0.00410
1076.80 0.00411
1076.90 0.00413
1077.00 0.00415
1077.10 0.00417
1077.20 0.00418
1077.30 0.00420
1077.40 0.00422
1077.50 0.00424
1077.60 0.00426
1077.70 0.00427
1077.80 0.00429
1077.90 0.00431
1078.00 0.00433
1078.10 0.00434
1078.20 0.00436
1078.30 0.00438
1078.40 0.00440
1078.50 0.00441
1078.60 0.00443
1078.70 0.00445
1078.80 0.00447
1078.90 0.00449
1079.00 0.00450
1079.10 0.00452
1079.20 0.00454
1079.30 0.00456
1079.40 0.00457
1079.50 0.00459
1079.60 0.00461
1079.70 0.00463
1079.80 0.00464
1079.90 0.00466
1080.00 0.00468
1080.10 0.00470
1080.20 0.00472
1080.30 0.00474
1080.40 0.00476
1080.50 0.00478
1080.60 0.00480
1080.70 0.00482
1080.80 0.00484
1080.90 0.00486
1081.00 0.00488
1081.10 0.00490
1081.20 0.00492
1081.30 0.00494
1081.40 0.00496
1081.50 0.00498
1081.60 0.00500
1081.70 0.00502
1081.80 0.00504
1081.90 0.00506
1082.00 0.00508
1082.10 0.00510
1082.20 0.00512
1082.30 0.00514
1082.40 0.00516
1082.50 0.00518
1082.60 0.00520
1082.70 0.00522
1082.80 0.00524
1082.90 0.00526
1083.00 0.00527
1083.10 0.00529
1083.20 0.00531
1083.30 0.00533
1083.40 0.00535
1083.50 0.00537
1083.60 0.00539
1083.70 0.00541
1083.80 0.00543
1083.90 0.00545
1084.00 0.00547
1084.10 0.00549
1084.20 0.00551
1084.30 0.00553
1084.40 0.00555
1084.50 0.00557
1084.60 0.00559
1084.70 0.00561
1084.80 0.00563
1084.90 0.00565
1085.00 0.00567
1085.10 0.00569
1085.20 0.00571
1085.30 0.00573
1085.40 0.00575
1085.50 0.00577
1085.60 0.00579
1085.70 0.00581
1085.80 0.00583
1085.90 0.00585
1086.00 0.00587
1086.10 0.00589
1086.20 0.00591
1086.30 0.00593
1086.40 0.00595
1086.50 0.00597
1086.60 0.00599
1086.70 0.00601
1086.80 0.00603
1086.90 0.00605
1087.00 0.00607
1087.10 0.00609
1087.20 0.00611
1087.30 0.00613
1087.40 0.00615
1087.50 0.00617
1087.60 0.00619
1087.70 0.00621
1087.80 0.00623
1087.90 0.00625
1088.00 0.00627
1088.10 0.00629
1088.20 0.00631
1088.30 0.00633
1088.40 0.00635
1088.50 0.00637
1088.60 0.00639
1088.70 0.00641
1088.80 0.00643
1088.90 0.00645
1089.00 0.00647
1089.10 0.00648
1089.20 0.00650
1089.30 0.00652
1089.40 0.00654
1089.50 0.00656
1089.60 0.00658
1089.70 0.00660
1089.80 0.00662
1089.90 0.00664
1090.00 0.00666
1090.10 0.00668
1090.20 0.00670
1090.30 0.00672
1090.40 0.00674
1090.50 0.00676
1090.60 0.00678
1090.70 0.00680
1090.80 0.00682
1090.90 0.00684
1091.00 0.00686
1091.10 0.00688
1091.20 0.00690
1091.30 0.00692
1091.40 0.00694
1091.50 0.00696
1091.60 0.00698
1091.70 0.00700
1091.80 0.00702
1091.90 0.00704
1092.00 0.00706
1092.10 0.00708
1092.20 0.00710
1092.30 0.00712
1092.40 0.00714
1092.50 0.00716
1092.60 0.00718
1092.70 0.00720
1092.80 0.00722
1092.90 0.00724
1093.00 0.00726
1093.10 0.00728
1093.20 0.00730
1093.30 0.00732
1093.40 0.00734
1093.50 0.00736
1093.60 0.00738
1093.70 0.00740
1093.80 0.00742
1093.90 0.00744
1094.00 0.00746
1094.10 0.00748
1094.20 0.00750
1094.30 0.00752
1094.40 0.00754
1094.50 0.00756
1094.60 0.00758
1094.70 0.00760
1094.80 0.00762
1094.90 0.00764
1095.00 0.00766
1095.10 0.00768
1095.20 0.00770
1095.30 0.00772
1095.40 0.00774
1095.50 0.00776
1095.60 0.00778
1095.70 0.00780
1095.80 0.00782
1095.90 0.00784
1096.00 0.00786
1096.10 0.00788
1096.20 0.00790
1096.30 0.00792
1096.40 0.00794
1096.50 0.00796
1096.60 0.00798
1096.70 0.00800
1096.80 0.00802
1096.90 0.00804
1097.00 0.00806
1097.10 0.00808
1097.20 0.00810
1097.30 0.00812
1097.40 0.00814
1097.50 0.00816
1097.60 0.00818
1097.70 0.00820
1097.80 0.00822
1097.90 0.00824
1098.00 0.00826
1098.10 0.00828
1098.20 0.00830
1098.30 0.00832
1098.40 0.00834
1098.50 0.00836
1098.60 0.00838
1098.70 0.00840
1098.80 0.00842
1098.90 0.00844
1099.00 0.00846
1099.10 0.00848
1099.20 0.00850
1099.30 0.00852
1099.40 0.00854
1099.50 0.00856
1099.60 0.00858
1099.70 0.00860
1099.80 0.00862
1099.90 0.00863
1100.00 0.00865
1100.10 0.00867
1100.20 0.00869
1100.30 0.00871
1100.40 0.00873
1100.50 0.00875
1100.60 0.00877
1100.70 0.00878
1100.80 0.00880
1100.90 0.00882
1101.00 0.00884
1101.10 0.00886
1101.20 0.00887
1101.30 0.00889
1101.40 0.00891
1101.50 0.00892
1101.60 0.00894
1101.70 0.00896
1101.80 0.00897
1101.90 0.00899
1102.00 0.00901
1102.10 0.00902
1102.20 0.00904
1102.30 0.00905
1102.40 0.00907
1102.50 0.00908
1102.60 0.00910
1102.70 0.00911
1102.80 0.00913
1102.90 0.00914
1103.00 0.00916
1103.10 0.00917
1103.20 0.00919
1103.30 0.00920
1103.40 0.00921
1103.50 0.00923
1103.60 0.00924
1103.70 0.00926
1103.80 0.00927
1103.90 0.00928
1104.00 0.00930
1104.10 0.00931
1104.20 0.00932
1104.30 0.00933
1104.40 0.00935
1104.50 0.00936
1104.60 0.00937
1104.70 0.00938
1104.80 0.00940
1104.90 0.00941
1105.00 0.00942
1105.10 0.00943
1105.20 0.00944
1105.30 0.00945
1105.40 0.00946
1105.50 0.00948
1105.60 0.00949
1105.70 0.00950
1105.80 0.00951
1105.90 0.00952
1106.00 0.00953
1106.10 0.00954
1106.20 0.00955
1106.30 0.00956
1106.40 0.00957
1106.50 0.00958
1106.60 0.00959
1106.70 0.00960
1106.80 0.00961
1106.90 0.00962
1107.00 0.00963
1107.10 0.00964
1107.20 0.00965
1107.30 0.00965
1107.40 0.00966
1107.50 0.00967
1107.60 0.00968
1107.70 0.00969
1107.80 0.00970
1107.90 0.00971
1108.00 0.00971
1108.10 0.00972
1108.20 0.00973
1108.30 0.00974
1108.40 0.00974
1108.50 0.00975
1108.60 0.00976
1108.70 0.00977
1108.80 0.00977
1108.90 0.00978
1109.00 0.00979
1109.10 0.00980
1109.20 0.00980
1109.30 0.00981
1109.40 0.00982
1109.50 0.00982
1109.60 0.00983
1109.70 0.00984
1109.80 0.00984
1109.90 0.00985
1110.00 0.00985
1110.10 0.00986
1110.20 0.00987
1110.30 0.00987
1110.40 0.00988
1110.50 0.00988
1110.60 0.00989
1110.70 0.00989
1110.80 0.00990
1110.90 0.00990
1111.00 0.00991
1111.10 0.00991
1111.20 0.00992
1111.30 0.00992
1111.40 0.00993
1111.50 0.00993
1111.60 0.00994
1111.70 0.00994
1111.80 0.00995
1111.90 0.00995
1112.00 0.00996
1112.10 0.00996
1112.20 0.00997
1112.30 0.00997
1112.40 0.00997
1112.50 0.00998
1112.60 0.00998
1112.70 0.00999
1112.80 0.00999
1112.90 0.00999
1113.00 0.01000
1113.10 0.01000
1113.20 0.01000
1113.30 0.01001
1113.40 0.01001
1113.50 0.01001
1113.60 0.01002
1113.70 0.01002
1113.80 0.01002
1113.90 0.01003
1114.00 0.01003
1114.10 0.01003
1114.20 0.01003
1114.30 0.01004
1114.40 0.01004
1114.50 0.01004
1114.60 0.01005
1114.70 0.01005
1114.80 0.01005
1114.90 0.01005
1115.00 0.01006
1115.10 0.01006
1115.20 0.01006
1115.30 0.01006
1115.40 0.01006
1115.50 0.01007
1115.60 0.01007
1115.70 0.01007
1115.80 0.01007
1115.90 0.01007
1116.00 0.01008
1116.10 0.01008
1116.20 0.01008
1116.30 0.01008
1116.40 0.01008
1116.50 0.01008
1116.60 0.01009
1116.70 0.01009
1116.80 0.01009
1116.90 0.01009
1117.00 0.01009
1117.10 0.01009
1117.20 0.01009
1117.30 0.01010
1117.40 0.01010
1117.50 0.01010
1117.60 0.01010
1117.70 0.01010
1117.80 0.01010
1117.90 0.01010
1118.00 0.01010
1118.10 0.01010
1118.20 0.01010
1118.30 0.01011
1118.40 0.01011
1118.50 0.01011
1118.60 0.01011
1118.70 0.01011
1118.80 0.01011
1118.90 0.01011
1119.00 0.01011
1119.10 0.01011
1119.20 0.01011
1119.30 0.01011
1119.40 0.01011
1119.50 0.01011
1119.60 0.01011
1119.70 0.01012
1119.80 0.01012
1119.90 0.01012
1120.00 0.01012
1120.10 0.01012
1120.20 0.01012
1120.30 0.01013
1120.40 0.01013
1120.50 0.01014
1120.60 0.01014
1120.70 0.01014
1120.80 0.01015
1120.90 0.01015
1121.00 0.01015
1121.10 0.01016
1121.20 0.01016
1121.30 0.01016
1121.40 0.01017
1121.50 0.01017
1121.60 0.01017
1121.70 0.01018
1121.80 0.01018
1121.90 0.01018
1122.00 0.01018
1122.10 0.01019
1122.20 0.01019
1122.30 0.01019
1122.40 0.01020
1122.50 0.01020
1122.60 0.01020
1122.70 0.01020
1122.80 0.01021
1122.90 0.01021
1123.00 0.01021
1123.10 0.01021
1123.20 0.01022
1123.30 0.01022
1123.40 0.01022
1123.50 0.01022
1123.60 0.01023
1123.70 0.01023
1123.80 0.01023
1123.90 0.01023
1124.00 0.01023
1124.10 0.01024
1124.20 0.01024
1124.30 0.01024
1124.40 0.01024
1124.50 0.01024
1124.60 0.01024
1124.70 0.01025
1124.80 0.01025
1124.90 0.01025
1125.00 0.01025
1125.10 0.01025
1125.20 0.01025
1125.30 0.01025
1125.40 0.01026
1125.50 0.01026
1125.60 0.01026
1125.70 0.01026
1125.80 0.01026
1125.90 0.01026
1126.00 0.01026
1126.10 0.01026
1126.20 0.01026
1126.30 0.01027
1126.40 0.01027
1126.50 0.01027
1126.60 0.01027
1126.70 0.01027
1126.80 0.01027
1126.90 0.01027
1127.00 0.01027
1127.10 0.01027
1127.20 0.01027
1127.30 0.01027
1127.40 0.01027
1127.50 0.01027
1127.60 0.01027
1127.70 0.01027
1127.80 0.01027
1127.90 0.01027
1128.00 0.01027
1128.10 0.01027
1128.20 0.01027
1128.30 0.01027
1128.40 0.01027
1128.50 0.01027
1128.60 0.01027
1128.70 0.01027
1128.80 0.01027
1128.90 0.01027
1129.00 0.01027
1129.10 0.01027
1129.20 0.01027
1129.30 0.01027
1129.40 0.01027
1129.50 0.01027
1129.60 0.01027
1129.70 0.01027
1129.80 0.01027
1129.90 0.01027
1130.00 0.01026
1130.10 0.01026
1130.20 0.01026
1130.30 0.01026
1130.40 0.01026
1130.50 0.01026
1130.60 0.01026
1130.70 0.01026
1130.80 0.01026
1130.90 0.01026
1131.00 0.01025
1131.10 0.01025
1131.20 0.01025
1131.30 0.01025
1131.40 0.01025
1131.50 0.01025
1131.60 0.01025
1131.70 0.01024
1131.80 0.01024
1131.90 0.01024
1132.00 0.01024
1132.10 0.01024
1132.20 0.01023
1132.30 0.01023
1132.40 0.01023
1132.50 0.01023
1132.60 0.01023
1132.70 0.01023
1132.80 0.01022
1132.90 0.01022
1133.00 0.01022
1133.10 0.01022
1133.20 0.01021
1133.30 0.01021
1133.40 0.01021
1133.50 0.01021
1133.60 0.01020
1133.70 0.01020
1133.80 0.01020
1133.90 0.01020
1134.00 0.01019
1134.10 0.01019
1134.20 0.01019
1134.30 0.01019
1134.40 0.01018
1134.50 0.01018
1134.60 0.01018
1134.70 0.01017
1134.80 0.01017
1134.90 0.01017
1135.00 0.01017
1135.10 0.01016
1135.20 0.01016
1135.30 0.01016
1135.40 0.01015
1135.50 0.01015
1135.60 0.01015
1135.70 0.01014
1135.80 0.01014
1135.90 0.01014
1136.00 0.01013
1136.10 0.01013
1136.20 0.01013
1136.30 0.01012
1136.40 0.01012
1136.50 0.01011
1136.60 0.01011
1136.70 0.01011
1136.80 0.01010
1136.90 0.01010
1137.00 0.01009
1137.10 0.01009
1137.20 0.01009
1137.30 0.01008
1137.40 0.01008
1137.50 0.01007
1137.60 0.01007
1137.70 0.01007
1137.80 0.01006
1137.90 0.01006
1138.00 0.01005
1138.10 0.01005
1138.20 0.01004
1138.30 0.01004
1138.40 0.01004
1138.50 0.01003
1138.60 0.01003
1138.70 0.01002
1138.80 0.01002
1138.90 0.01001
1139.00 0.01001
1139.10 0.01000
1139.20 0.01000
1139.30 0.00999
1139.40 0.00999
1139.50 0.00998
1139.60 0.00998
1139.70 0.00997
1139.80 0.00997
1139.90 0.00996
1140.00 0.00996
1140.10 0.00995
1140.20 0.00995
1140.30 0.00994
1140.40 0.00994
1140.50 0.00993
1140.60 0.00992
1140.70 0.00992
1140.80 0.00991
1140.90 0.00991
1141.00 0.00990
1141.10 0.00990
1141.20 0.00989
1141.30 0.00988
1141.40 0.00988
1141.50 0.00987
1141.60 0.00987
1141.70 0.00986
1141.80 0.00985
1141.90 0.00985
1142.00 0.00984
1142.10 0.00983
1142.20 0.00983
1142.30 0.00982
1142.40 0.00982
1142.50 0.00981
1142.60 0.00980
1142.70 0.00980
1142.80 0.00979
1142.90 0.00978
1143.00 0.00977
1143.10 0.00977
1143.20 0.00976
1143.30 0.00975
1143.40 0.00975
1143.50 0.00974
1143.60 0.00973
1143.70 0.00973
1143.80 0.00972
1143.90 0.00971
1144.00 0.00970
1144.10 0.00970
1144.20 0.00969
1144.30 0.00968
1144.40 0.00967
1144.50 0.00967
1144.60 0.00966
1144.70 0.00965
1144.80 0.00964
1144.90 0.00964
1145.00 0.00963
1145.10 0.00962
1145.20 0.00961
1145.30 0.00961
1145.40 0.00960
1145.50 0.00959
1145.60 0.00958
1145.70 0.00957
1145.80 0.00957
1145.90 0.00956
1146.00 0.00955
1146.10 0.00954
1146.20 0.00953
1146.30 0.00953
1146.40 0.00952
1146.50 0.00951
1146.60 0.00950
1146.70 0.00949
1146.80 0.00948
1146.90 0.00948
1147.00 0.00947
1147.10 0.00946
1147.20 0.00945
1147.30 0.00944
1147.40 0.00943
1147.50 0.00943
1147.60 0.00942
1147.70 0.00941
1147.80 0.00940
1147.90 0.00939
1148.00 0.00938
1148.10 0.00937
1148.20 0.00937
1148.30 0.00936
1148.40 0.00935
1148.50 0.00934
1148.60 0.00933
1148.70 0.00932
1148.80 0.00931
1148.90 0.00931
1149.00 0.00930
1149.10 0.00929
1149.20 0.00928
1149.30 0.00927
1149.40 0.00926
1149.50 0.00925
1149.60 0.00924
1149.70 0.00924
1149.80 0.00923
1149.90 0.00922
1150.00 0.00921
1150.10 0.00920
1150.20 0.00919
1150.30 0.00918
1150.40 0.00917
1150.50 0.00916
1150.60 0.00916
1150.70 0.00915
1150.80 0.00914
1150.90 0.00913
1151.00 0.00912
1151.10 0.00911
1151.20 0.00910
1151.30 0.00909
1151.40 0.00908
1151.50 0.00908
1151.60 0.00907
1151.70 0.00906
1151.80 0.00905
1151.90 0.00904
1152.00 0.00903
1152.10 0.00902
1152.20 0.00901
1152.30 0.00900
1152.40 0.00900
1152.50 0.00899
1152.60 0.00898
1152.70 0.00897
1152.80 0.00896
1152.90 0.00895
1153.00 0.00894
1153.10 0.00893
1153.20 0.00892
1153.30 0.00892
1153.40 0.00891
1153.50 0.00890
1153.60 0.00889
1153.70 0.00888
1153.80 0.00887
1153.90 0.00886
1154.00 0.00885
1154.10 0.00885
1154.20 0.00884
1154.30 0.00883
1154.40 0.00882
1154.50 0.00881
1154.60 0.00880
1154.70 0.00879
1154.80 0.00878
1154.90 0.00878
1155.00 0.00877
1155.10 0.00876
1155.20 0.00875
1155.30 0.00874
1155.40 0.00873
1155.50 0.00872
1155.60 0.00872
1155.70 0.00871
1155.80 0.00870
1155.90 0.00869
1156.00 0.00868
1156.10 0.00867
1156.20 0.00867
1156.30 0.00866
1156.40 0.00865
1156.50 0.00864
1156.60 0.00863
1156.70 0.00862
1156.80 0.00862
1156.90 0.00861
1157.00 0.00860
1157.10 0.00859
1157.20 0.00858
1157.30 0.00858
1157.40 0.00857
1157.50 0.00856
1157.60 0.00855
1157.70 0.00854
1157.80 0.00854
1157.90 0.00853
1158.00 0.00852
1158.10 0.00851
1158.20 0.00851
1158.30 0.00850
1158.40 0.00849
1158.50 0.00848
1158.60 0.00847
1158.70 0.00847
1158.80 0.00846
1158.90 0.00845
1159.00 0.00844
1159.10 0.00844
1159.20 0.00843
1159.30 0.00842
1159.40 0.00842
1159.50 0.00841
1159.60 0.00840
1159.70 0.00839
1159.80 0.00839
1159.90 0.00838
1160.00 0.00837
1160.10 0.00837
1160.20 0.00836
1160.30 0.00835
1160.40 0.00835
1160.50 0.00834
1160.60 0.00834
1160.70 0.00833
1160.80 0.00833
1160.90 0.00832
1161.00 0.00831
1161.10 0.00831
1161.20 0.00830
1161.30 0.00830
1161.40 0.00829
1161.50 0.00829
1161.60 0.00828
1161.70 0.00827
1161.80 0.00827
1161.90 0.00826
1162.00 0.00826
1162.10 0.00825
1162.20 0.00825
1162.30 0.00824
1162.40 0.00824
1162.50 0.00823
1162.60 0.00823
1162.70 0.00822
1162.80 0.00821
1162.90 0.00821
1163.00 0.00820
1163.10 0.00820
1163.20 0.00819
1163.30 0.00819
1163.40 0.00818
1163.50 0.00818
1163.60 0.00817
1163.70 0.00817
1163.80 0.00816
1163.90 0.00816
1164.00 0.00815
1164.10 0.00815
1164.20 0.00814
1164.30 0.00814
1164.40 0.00813
1164.50 0.00813
1164.60 0.00812
1164.70 0.00812
1164.80 0.00811
1164.90 0.00811
1165.00 0.00810
1165.10 0.00810
1165.20 0.00809
1165.30 0.00809
1165.40 0.00809
1165.50 0.00808
1165.60 0.00808
1165.70 0.00807
1165.80 0.00807
1165.90 0.00806
1166.00 0.00806
1166.10 0.00805
1166.20 0.00805
1166.30 0.00804
1166.40 0.00804
1166.50 0.00804
1166.60 0.00803
1166.70 0.00803
1166.80 0.00802
1166.90 0.00802
1167.00 0.00801
1167.10 0.00801
1167.20 0.00800
1167.30 0.00800
1167.40 0.00800
1167.50 0.00799
1167.60 0.00799
1167.70 0.00798
1167.80 0.00798
1167.90 0.00797
1168.00 0.00797
1168.10 0.00797
1168.20 0.00796
1168.30 0.00796
1168.40 0.00795
1168.50 0.00795
1168.60 0.00795
1168.70 0.00794
1168.80 0.00794
1168.90 0.00793
1169.00 0.00793
1169.10 0.00793
1169.20 0.00792
1169.30 0.00792
1169.40 0.00791
1169.50 0.00791
1169.60 0.00791
1169.70 0.00790
1169.80 0.00790
1169.90 0.00790
1170.00 0.00789
1170.10 0.00789
1170.20 0.00788
1170.30 0.00788
1170.40 0.00788
1170.50 0.00787
1170.60 0.00787
1170.70 0.00787
1170.80 0.00786
1170.90 0.00786
1171.00 0.00785
1171.10 0.00785
1171.20 0.00785
1171.30 0.00784
1171.40 0.00784
1171.50 0.00784
1171.60 0.00783
1171.70 0.00783
1171.80 0.00783
1171.90 0.00782
1172.00 0.00782
1172.10 0.00782
1172.20 0.00781
1172.30 0.00781
1172.40 0.00781
1172.50 0.00780
1172.60 0.00780
1172.70 0.00780
1172.80 0.00779
1172.90 0.00779
1173.00 0.00779
1173.10 0.00778
1173.20 0.00778
1173.30 0.00778
1173.40 0.00777
1173.50 0.00777
1173.60 0.00777
1173.70 0.00776
1173.80 0.00776
1173.90 0.00776
1174.00 0.00775
1174.10 0.00775
1174.20 0.00775
1174.30 0.00774
1174.40 0.00774
1174.50 0.00774
1174.60 0.00773
1174.70 0.00773
1174.80 0.00773
1174.90 0.00772
1175.00 0.00772
1175.10 0.00772
1175.20 0.00772
1175.30 0.00771
1175.40 0.00771
1175.50 0.00771
1175.60 0.00770
1175.70 0.00770
1175.80 0.00770
1175.90 0.00769
1176.00 0.00769
1176.10 0.00769
1176.20 0.00769
1176.30 0.00768
1176.40 0.00768
1176.50 0.00768
1176.60 0.00767
1176.70 0.00767
1176.80 0.00767
1176.90 0.00767
1177.00 0.00766
1177.10 0.00766
1177.20 0.00766
1177.30 0.00765
1177.40 0.00765
1177.50 0.00765
1177.60 0.00765
1177.70 0.00764
1177.80 0.00764
1177.90 0.00764
1178.00 0.00764
1178.10 0.00763
1178.20 0.00763
1178.30 0.00763
1178.40 0.00762
1178.50 0.00762
1178.60 0.00762
1178.70 0.00762
1178.80 0.00761
1178.90 0.00761
1179.00 0.00761
1179.10 0.00761
1179.20 0.00760
1179.30 0.00760
1179.40 0.00760
1179.50 0.00760
1179.60 0.00759
1179.70 0.00759
1179.80 0.00759
1179.90 0.00758
1180.00 0.00758
1180.10 0.00758
1180.20 0.00758
1180.30 0.00757
1180.40 0.00757
1180.50 0.00757
1180.60 0.00757
1180.70 0.00757
1180.80 0.00756
1180.90 0.00756
1181.00 0.00756
1181.10 0.00756
1181.20 0.00755
1181.30 0.00755
1181.40 0.00755
1181.50 0.00755
1181.60 0.00755
1181.70 0.00754
1181.80 0.00754
1181.90 0.00754
1182.00 0.00754
1182.10 0.00754
1182.20 0.00753
1182.30 0.00753
1182.40 0.00753
1182.50 0.00753
1182.60 0.00753
1182.70 0.00752
1182.80 0.00752
1182.90 0.00752
1183.00 0.00752
1183.10 0.00752
1183.20 0.00751
1183.30 0.00751
1183.40 0.00751
1183.50 0.00751
1183.60 0.00751
1183.70 0.00750
1183.80 0.00750
1183.90 0.00750
1184.00 0.00750
1184.10 0.00750
1184.20 0.00750
1184.30 0.00749
1184.40 0.00749
1184.50 0.00749
1184.60 0.00749
1184.70 0.00749
1184.80 0.00748
1184.90 0.00748
1185.00 0.00748
1185.10 0.00748
1185.20 0.00748
1185.30 0.00748
1185.40 0.00747
1185.50 0.00747
1185.60 0.00747
1185.70 0.00747
1185.80 0.00747
1185.90 0.00747
1186.00 0.00746
1186.10 0.00746
1186.20 0.00746
1186.30 0.00746
1186.40 0.00746
1186.50 0.00746
1186.60 0.00745
1186.70 0.00745
1186.80 0.00745
1186.90 0.00745
1187.00 0.00745
1187.10 0.00745
1187.20 0.00745
1187.30 0.00744
1187.40 0.00744
1187.50 0.00744
1187.60 0.00744
1187.70 0.00744
1187.80 0.00744
1187.90 0.00743
1188.00 0.00743
1188.10 0.00743
1188.20 0.00743
1188.30 0.00743
1188.40 0.00743
1188.50 0.00742
1188.60 0.00742
1188.70 0.00742
1188.80 0.00742
1188.90 0.00742
1189.00 0.00742
1189.10 0.00742
1189.20 0.00741
1189.30 0.00741
1189.40 0.00741
1189.50 0.00741
1189.60 0.00741
1189.70 0.00741
1189.80 0.00740
1189.90 0.00740
1190.00 0.00740
1190.10 0.00740
1190.20 0.00740
1190.30 0.00740
1190.40 0.00739
1190.50 0.00739
1190.60 0.00739
1190.70 0.00739
1190.80 0.00739
1190.90 0.00739
1191.00 0.00738
1191.10 0.00738
1191.20 0.00738
1191.30 0.00738
1191.40 0.00738
1191.50 0.00737
1191.60 0.00737
1191.70 0.00737
1191.80 0.00737
1191.90 0.00737
1192.00 0.00737
1192.10 0.00736
1192.20 0.00736
1192.30 0.00736
1192.40 0.00736
1192.50 0.00736
1192.60 0.00735
1192.70 0.00735
1192.80 0.00735
1192.90 0.00735
1193.00 0.00735
1193.10 0.00735
1193.20 0.00734
1193.30 0.00734
1193.40 0.00734
1193.50 0.00734
1193.60 0.00734
1193.70 0.00733
1193.80 0.00733
1193.90 0.00733
1194.00 0.00733
1194.10 0.00732
1194.20 0.00732
1194.30 0.00732
1194.40 0.00732
1194.50 0.00732
1194.60 0.00731
1194.70 0.00731
1194.80 0.00731
1194.90 0.00731
1195.00 0.00731
1195.10 0.00730
1195.20 0.00730
1195.30 0.00730
1195.40 0.00730
1195.50 0.00729
1195.60 0.00729
1195.70 0.00729
1195.80 0.00729
1195.90 0.00728
1196.00 0.00728
1196.10 0.00728
1196.20 0.00728
1196.30 0.00727
1196.40 0.00727
1196.50 0.00727
1196.60 0.00727
1196.70 0.00726
1196.80 0.00726
1196.90 0.00726
1197.00 0.00726
1197.10 0.00725
1197.20 0.00725
1197.30 0.00725
1197.40 0.00724
1197.50 0.00724
1197.60 0.00724
1197.70 0.00724
1197.80 0.00723
1197.90 0.00723
1198.00 0.00723
1198.10 0.00722
1198.20 0.00722
1198.30 0.00722
1198.40 0.00722
1198.50 0.00721
1198.60 0.00721
1198.70 0.00721
1198.80 0.00720
1198.90 0.00720
1199.00 0.00720
1199.10 0.00719
1199.20 0.00719
1199.30 0.00719
1199.40 0.00718
1199.50 0.00718
1199.60 0.00718
1199.70 0.00717
1199.80 0.00717
1199.90 0.00717
1200.00 0.00716
1200.10 0.00716
1200.20 0.00715
1200.30 0.00715
1200.40 0.00715
1200.50 0.00714
1200.60 0.00714
1200.70 0.00713
1200.80 0.00713
1200.90 0.00712
1201.00 0.00712
1201.10 0.00711
1201.20 0.00711
1201.30 0.00711
1201.40 0.00710
1201.50 0.00710
1201.60 0.00709
1201.70 0.00709
1201.80 0.00708
1201.90 0.00708
1202.00 0.00707
1202.10 0.00707
1202.20 0.00706
1202.30 0.00706
1202.40 0.00705
1202.50 0.00705
1202.60 0.00705
1202.70 0.00704
1202.80 0.00704
1202.90 0.00703
1203.00 0.00703
1203.10 0.00702
1203.20 0.00702
1203.30 0.00701
1203.40 0.00701
1203.50 0.00700
1203.60 0.00700
1203.70 0.00699
1203.80 0.00699
1203.90 0.00698
1204.00 0.00698
1204.10 0.00697
1204.20 0.00697
1204.30 0.00696
1204.40 0.00695
1204.50 0.00695
1204.60 0.00694
1204.70 0.00694
1204.80 0.00693
1204.90 0.00693
1205.00 0.00692
1205.10 0.00692
1205.20 0.00691
1205.30 0.00691
1205.40 0.00690
1205.50 0.00690
1205.60 0.00689
1205.70 0.00688
1205.80 0.00688
1205.90 0.00687
1206.00 0.00687
1206.10 0.00686
1206.20 0.00686
1206.30 0.00685
1206.40 0.00685
1206.50 0.00684
1206.60 0.00683
1206.70 0.00683
1206.80 0.00682
1206.90 0.00682
1207.00 0.00681
1207.10 0.00681
1207.20 0.00680
1207.30 0.00680
1207.40 0.00679
1207.50 0.00678
1207.60 0.00678
1207.70 0.00677
1207.80 0.00677
1207.90 0.00676
1208.00 0.00675
1208.10 0.00675
1208.20 0.00674
1208.30 0.00674
1208.40 0.00673
1208.50 0.00673
1208.60 0.00672
1208.70 0.00671
1208.80 0.00671
1208.90 0.00670
1209.00 0.00670
1209.10 0.00669
1209.20 0.00668
1209.30 0.00668
1209.40 0.00667
1209.50 0.00667
1209.60 0.00666
1209.70 0.00665
1209.80 0.00665
1209.90 0.00664
1210.00 0.00664
1210.10 0.00663
1210.20 0.00662
1210.30 0.00662
1210.40 0.00661
1210.50 0.00661
1210.60 0.00660
1210.70 0.00659
1210.80 0.00659
1210.90 0.00658
1211.00 0.00657
1211.10 0.00657
1211.20 0.00656
1211.30 0.00656
1211.40 0.00655
1211.50 0.00654
1211.60 0.00654
1211.70 0.00653
1211.80 0.00653
1211.90 0.00652
1212.00 0.00651
1212.10 0.00651
1212.20 0.00650
1212.30 0.00650
1212.40 0.00649
1212.50 0.00648
1212.60 0.00648
1212.70 0.00647
1212.80 0.00646
1212.90 0.00646
1213.00 0.00645
1213.10 0.00645
1213.20 0.00644
1213.30 0.00643
1213.40 0.00643
1213.50 0.00642
1213.60 0.00641
1213.70 0.00641
1213.80 0.00640
1213.90 0.00640
1214.00 0.00639
1214.10 0.00638
1214.20 0.00638
1214.30 0.00637
1214.40 0.00637
1214.50 0.00636
1214.60 0.00635
1214.70 0.00635
1214.80 0.00634
1214.90 0.00633
1215.00 0.00633
1215.10 0.00632
1215.20 0.00632
1215.30 0.00631
1215.40 0.00630
1215.50 0.00630
1215.60 0.00629
1215.70 0.00629
1215.80 0.00628
1215.90 0.00627
1216.00 0.00627
1216.10 0.00626
1216.20 0.00625
1216.30 0.00625
1216.40 0.00624
1216.50 0.00624
1216.60 0.00623
1216.70 0.00622
1216.80 0.00622
1216.90 0.00621
1217.00 0.00621
1217.10 0.00620
1217.20 0.00619
1217.30 0.00619
1217.40 0.00618
1217.50 0.00618
1217.60 0.00617
1217.70 0.00616
1217.80 0.00616
1217.90 0.00615
1218.00 0.00615
1218.10 0.00614
1218.20 0.00613
1218.30 0.00613
1218.40 0.00612
1218.50 0.00612
1218.60 0.00611
1218.70 0.00610
1218.80 0.00610
1218.90 0.00609
1219.00 0.00609
1219.10 0.00608
1219.20 0.00607
1219.30 0.00607
1219.40 0.00606
1219.50 0.00606
1219.60 0.00605
1219.70 0.00604
1219.80 0.00604
1219.90 0.00603
1220.00 0.00603
1220.10 0.00602
1220.20 0.00602
1220.30 0.00601
1220.40 0.00601
1220.50 0.00600
1220.60 0.00599
1220.70 0.00599
1220.80 0.00598
1220.90 0.00598
1221.00 0.00597
1221.10 0.00597
1221.20 0.00596
1221.30 0.00596
1221.40 0.00595
1221.50 0.00594
1221.60 0.00594
1221.70 0.00593
1221.80 0.00593
1221.90 0.00592
1222.00 0.00592
1222.10 0.00591
1222.20 0.00591
1222.30 0.00590
1222.40 0.00590
1222.50 0.00589
1222.60 0.00588
1222.70 0.00588
1222.80 0.00587
1222.90 0.00587
1223.00 0.00586
1223.10 0.00586
1223.20 0.00585
1223.30 0.00585
1223.40 0.00584
1223.50 0.00584
1223.60 0.00583
1223.70 0.00582
1223.80 0.00582
1223.90 0.00581
1224.00 0.00581
1224.10 0.00580
1224.20 0.00580
1224.30 0.00579
1224.40 0.00579
1224.50 0.00578
1224.60 0.00578
1224.70 0.00577
1224.80 0.00577
1224.90 0.00576
1225.00 0.00576
1225.10 0.00575
1225.20 0.00574
1225.30 0.00574
1225.40 0.00573
1225.50 0.00573
1225.60 0.00572
1225.70 0.00572
1225.80 0.00571
1225.90 0.00571
1226.00 0.00570
1226.10 0.00570
1226.20 0.00569
1226.30 0.00569
1226.40 0.00568
1226.50 0.00568
1226.60 0.00567
1226.70 0.00567
1226.80 0.00566
1226.90 0.00565
1227.00 0.00565
1227.10 0.00564
1227.20 0.00564
1227.30 0.00563
1227.40 0.00563
1227.50 0.00562
1227.60 0.00562
1227.70 0.00561
1227.80 0.00561
1227.90 0.00560
1228.00 0.00560
1228.10 0.00559
1228.20 0.00559
1228.30 0.00558
1228.40 0.00558
1228.50 0.00557
1228.60 0.00557
1228.70 0.00556
1228.80 0.00556
1228.90 0.00555
1229.00 0.00555
1229.10 0.00554
1229.20 0.00554
1229.30 0.00553
1229.40 0.00553
1229.50 0.00552
1229.60 0.00552
1229.70 0.00551
1229.80 0.00551
1229.90 0.00550
1230.00 0.00550
1230.10 0.00549
1230.20 0.00549
1230.30 0.00548
1230.40 0.00548
1230.50 0.00547
1230.60 0.00547
1230.70 0.00546
1230.80 0.00546
1230.90 0.00545
1231.00 0.00545
1231.10 0.00544
1231.20 0.00544
1231.30 0.00543
1231.40 0.00543
1231.50 0.00542
1231.60 0.00542
1231.70 0.00541
1231.80 0.00541
1231.90 0.00540
1232.00 0.00540
1232.10 0.00539
1232.20 0.00539
1232.30 0.00538
1232.40 0.00538
1232.50 0.00537
1232.60 0.00537
1232.70 0.00536
1232.80 0.00536
1232.90 0.00536
1233.00 0.00535
1233.10 0.00535
1233.20 0.00534
1233.30 0.00534
1233.40 0.00533
1233.50 0.00533
1233.60 0.00532
1233.70 0.00532
1233.80 0.00531
1233.90 0.00531
1234.00 0.00530
1234.10 0.00530
1234.20 0.00529
1234.30 0.00529
1234.40 0.00529
1234.50 0.00528
1234.60 0.00528
1234.70 0.00527
1234.80 0.00527
1234.90 0.00526
1235.00 0.00526
1235.10 0.00525
1235.20 0.00525
1235.30 0.00525
1235.40 0.00524
1235.50 0.00524
1235.60 0.00523
1235.70 0.00523
1235.80 0.00522
1235.90 0.00522
1236.00 0.00521
1236.10 0.00521
1236.20 0.00521
1236.30 0.00520
1236.40 0.00520
1236.50 0.00519
1236.60 0.00519
1236.70 0.00518
1236.80 0.00518
1236.90 0.00518
1237.00 0.00517
1237.10 0.00517
1237.20 0.00516
1237.30 0.00516
1237.40 0.00515
1237.50 0.00515
1237.60 0.00515
1237.70 0.00514
1237.80 0.00514
1237.90 0.00513
1238.00 0.00513
1238.10 0.00513
1238.20 0.00512
1238.30 0.00512
1238.40 0.00511
1238.50 0.00511
1238.60 0.00511
1238.70 0.00510
1238.80 0.00510
1238.90 0.00509
1239.00 0.00509
1239.10 0.00509
1239.20 0.00508
1239.30 0.00508
1239.40 0.00507
1239.50 0.00507
1239.60 0.00507
1239.70 0.00506
1239.80 0.00506
1239.90 0.00505
1240.00 0.00505
1240.10 0.00505
1240.20 0.00504
1240.30 0.00504
1240.40 0.00504
1240.50 0.00503
1240.60 0.00503
1240.70 0.00503
1240.80 0.00502
1240.90 0.00502
1241.00 0.00502
1241.10 0.00501
1241.20 0.00501
1241.30 0.00501
1241.40 0.00500
1241.50 0.00500
1241.60 0.00500
1241.70 0.00499
1241.80 0.00499
1241.90 0.00499
1242.00 0.00498
1242.10 0.00498
1242.20 0.00498
1242.30 0.00498
1242.40 0.00497
1242.50 0.00497
1242.60 0.00497
1242.70 0.00496
1242.80 0.00496
1242.90 0.00496
1243.00 0.00495
1243.10 0.00495
1243.20 0.00495
1243.30 0.00495
1243.40 0.00494
1243.50 0.00494
1243.60 0.00494
1243.70 0.00493
1243.80 0.00493
1243.90 0.00493
1244.00 0.00493
1244.10 0.00492
1244.20 0.00492
1244.30 0.00492
1244.40 0.00491
1244.50 0.00491
1244.60 0.00491
1244.70 0.00491
1244.80 0.00490
1244.90 0.00490
1245.00 0.00490
1245.10 0.00490
1245.20 0.00489
1245.30 0.00489
1245.40 0.00489
1245.50 0.00488
1245.60 0.00488
1245.70 0.00488
1245.80 0.00488
1245.90 0.00487
1246.00 0.00487
1246.10 0.00487
1246.20 0.00487
1246.30 0.00486
1246.40 0.00486
1246.50 0.00486
1246.60 0.00486
1246.70 0.00485
1246.80 0.00485
1246.90 0.00485
1247.00 0.00485
1247.10 0.00484
1247.20 0.00484
1247.30 0.00484
1247.40 0.00484
1247.50 0.00483
1247.60 0.00483
1247.70 0.00483
1247.80 0.00483
1247.90 0.00482
1248.00 0.00482
1248.10 0.00482
1248.20 0.00482
1248.30 0.00481
1248.40 0.00481
1248.50 0.00481
1248.60 0.00481
1248.70 0.00480
1248.80 0.00480
1248.90 0.00480
1249.00 0.00480
1249.10 0.00479
1249.20 0.00479
1249.30 0.00479
1249.40 0.00479
1249.50 0.00478
1249.60 0.00478
1249.70 0.00478
1249.80 0.00478
1249.90 0.00477
1250.00 0.00477
1250.10 0.00477
1250.20 0.00477
1250.30 0.00476
1250.40 0.00476
1250.50 0.00476
1250.60 0.00476
1250.70 0.00475
1250.80 0.00475
1250.90 0.00475
1251.00 0.00475
1251.10 0.00474
1251.20 0.00474
1251.30 0.00474
1251.40 0.00474
1251.50 0.00473
1251.60 0.00473
1251.70 0.00473
1251.80 0.00473
1251.90 0.00472
1252.00 0.00472
1252.10 0.00472
1252.20 0.00472
1252.30 0.00471
1252.40 0.00471
1252.50 0.00471
1252.60 0.00470
1252.70 0.00470
1252.80 0.00470
1252.90 0.00470
1253.00 0.00469
1253.10 0.00469
1253.20 0.00469
1253.30 0.00469
1253.40 0.00468
1253.50 0.00468
1253.60 0.00468
1253.70 0.00468
1253.80 0.00467
1253.90 0.00467
1254.00 0.00467
1254.10 0.00467
1254.20 0.00466
1254.30 0.00466
1254.40 0.00466
1254.50 0.00465
1254.60 0.00465
1254.70 0.00465
1254.80 0.00465
1254.90 0.00464
1255.00 0.00464
1255.10 0.00464
1255.20 0.00464
1255.30 0.00463
1255.40 0.00463
1255.50 0.00463
1255.60 0.00462
1255.70 0.00462
1255.80 0.00462
1255.90 0.00462
1256.00 0.00461
1256.10 0.00461
1256.20 0.00461
1256.30 0.00460
1256.40 0.00460
1256.50 0.00460
1256.60 0.00459
1256.70 0.00459
1256.80 0.00459
1256.90 0.00459
1257.00 0.00458
1257.10 0.00458
1257.20 0.00458
1257.30 0.00457
1257.40 0.00457
1257.50 0.00457
1257.60 0.00456
1257.70 0.00456
1257.80 0.00456
1257.90 0.00455
1258.00 0.00455
1258.10 0.00455
1258.20 0.00454
1258.30 0.00454
1258.40 0.00454
1258.50 0.00453
1258.60 0.00453
1258.70 0.00453
1258.80 0.00452
1258.90 0.00452
1259.00 0.00452
1259.10 0.00451
1259.20 0.00451
1259.30 0.00451
1259.40 0.00450
1259.50 0.00450
1259.60 0.00450
1259.70 0.00449
1259.80 0.00449
1259.90 0.00449
1260.00 0.00448
1260.10 0.00448
1260.20 0.00447
1260.30 0.00447
1260.40 0.00446
1260.50 0.00446
1260.60 0.00446
1260.70 0.00445
1260.80 0.00445
1260.90 0.00444
1261.00 0.00444
1261.10 0.00443
1261.20 0.00443
1261.30 0.00442
1261.40 0.00442
1261.50 0.00441
1261.60 0.00441
1261.70 0.00440
1261.80 0.00440
1261.90 0.00439
1262.00 0.00439
1262.10 0.00438
1262.20 0.00438
1262.30 0.00437
1262.40 0.00437
1262.50 0.00436
1262.60 0.00436
1262.70 0.00435
1262.80 0.00435
1262.90 0.00434
1263.00 0.00434
1263.10 0.00433
1263.20 0.00433
1263.30 0.00432
1263.40 0.00432
1263.50 0.00431
1263.60 0.00431
1263.70 0.00430
1263.80 0.00430
1263.90 0.00429
1264.00 0.00428
1264.10 0.00428
1264.20 0.00427
1264.30 0.00427
1264.40 0.00426
1264.50 0.00426
1264.60 0.00425
1264.70 0.00425
1264.80 0.00424
1264.90 0.00424
1265.00 0.00423
1265.10 0.00423
1265.20 0.00422
1265.30 0.00421
1265.40 0.00421
1265.50 0.00420
1265.60 0.00420
1265.70 0.00419
1265.80 0.00419
1265.90 0.00418
1266.00 0.00418
1266.10 0.00417
1266.20 0.00417
1266.30 0.00416
1266.40 0.00415
1266.50 0.00415
1266.60 0.00414
1266.70 0.00414
1266.80 0.00413
1266.90 0.00413
1267.00 0.00412
1267.10 0.00412
1267.20 0.00411
1267.30 0.00410
1267.40 0.00410
1267.50 0.00409
1267.60 0.00409
1267.70 0.00408
1267.80 0.00408
1267.90 0.00407
1268.00 0.00407
1268.10 0.00406
1268.20 0.00405
1268.30 0.00405
1268.40 0.00404
1268.50 0.00404
1268.60 0.00403
1268.70 0.00403
1268.80 0.00402
1268.90 0.00402
1269.00 0.00401
1269.10 0.00400
1269.20 0.00400
1269.30 0.00399
1269.40 0.00399
1269.50 0.00398
1269.60 0.00398
1269.70 0.00397
1269.80 0.00397
1269.90 0.00396
1270.00 0.00395
1270.10 0.00395
1270.20 0.00394
1270.30 0.00394
1270.40 0.00393
1270.50 0.00393
1270.60 0.00392
1270.70 0.00392
1270.80 0.00391
1270.90 0.00390
1271.00 0.00390
1271.10 0.00389
1271.20 0.00389
1271.30 0.00388
1271.40 0.00388
1271.50 0.00387
1271.60 0.00387
1271.70 0.00386
1271.80 0.00386
1271.90 0.00385
1272.00 0.00385
1272.10 0.00384
1272.20 0.00383
1272.30 0.00383
1272.40 0.00382
1272.50 0.00382
1272.60 0.00381
1272.70 0.00381
1272.80 0.00380
1272.90 0.00380
1273.00 0.00379
1273.10 0.00379
1273.20 0.00378
1273.30 0.00378
1273.40 0.00377
1273.50 0.00377
1273.60 0.00376
1273.70 0.00376
1273.80 0.00375
1273.90 0.00375
1274.00 0.00374
1274.10 0.00374
1274.20 0.00373
1274.30 0.00373
1274.40 0.00372
1274.50 0.00372
1274.60 0.00371
1274.70 0.00371
1274.80 0.00370
1274.90 0.00370
1275.00 0.00369
1275.10 0.00369
1275.20 0.00368
1275.30 0.00368
1275.40 0.00367
1275.50 0.00367
1275.60 0.00366
1275.70 0.00366
1275.80 0.00365
1275.90 0.00365
1276.00 0.00364
1276.10 0.00364
1276.20 0.00363
1276.30 0.00363
1276.40 0.00363
1276.50 0.00362
1276.60 0.00362
1276.70 0.00361
1276.80 0.00361
1276.90 0.00360
1277.00 0.00360
1277.10 0.00359
1277.20 0.00359
1277.30 0.00359
1277.40 0.00358
1277.50 0.00358
1277.60 0.00357
1277.70 0.00357
1277.80 0.00356
1277.90 0.00356
1278.00 0.00356
1278.10 0.00355
1278.20 0.00355
1278.30 0.00354
1278.40 0.00354
1278.50 0.00354
1278.60 0.00353
1278.70 0.00353
1278.80 0.00352
1278.90 0.00352
1279.00 0.00352
1279.10 0.00351
1279.20 0.00351
1279.30 0.00350
1279.40 0.00350
1279.50 0.00350
1279.60 0.00349
1279.70 0.00349
1279.80 0.00349
1279.90 0.00348
1280.00 0.00348
1280.10 0.00348
1280.20 0.00348
1280.30 0.00347
1280.40 0.00347
1280.50 0.00347
1280.60 0.00347
1280.70 0.00347
1280.80 0.00347
1280.90 0.00346
1281.00 0.00346
1281.10 0.00346
1281.20 0.00346
1281.30 0.00346
1281.40 0.00346
1281.50 0.00346
1281.60 0.00345
1281.70 0.00345
1281.80 0.00345
1281.90 0.00345
1282.00 0.00345
1282.10 0.00345
1282.20 0.00345
1282.30 0.00345
1282.40 0.00345
1282.50 0.00345
1282.60 0.00344
1282.70 0.00344
1282.80 0.00344
1282.90 0.00344
1283.00 0.00344
1283.10 0.00344
1283.20 0.00344
1283.30 0.00344
1283.40 0.00344
1283.50 0.00344
1283.60 0.00344
1283.70 0.00344
1283.80 0.00344
1283.90 0.00344
1284.00 0.00344
1284.10 0.00343
1284.20 0.00343
1284.30 0.00343
1284.40 0.00343
1284.50 0.00343
1284.60 0.00343
1284.70 0.00343
1284.80 0.00343
1284.90 0.00343
1285.00 0.00343
1285.10 0.00343
1285.20 0.00343
1285.30 0.00343
1285.40 0.00343
1285.50 0.00343
1285.60 0.00343
1285.70 0.00343
1285.80 0.00343
1285.90 0.00343
1286.00 0.00343
1286.10 0.00343
1286.20 0.00343
1286.30 0.00343
1286.40 0.00343
1286.50 0.00343
1286.60 0.00343
1286.70 0.00343
1286.80 0.00343
1286.90 0.00343
1287.00 0.00343
1287.10 0.00343
1287.20 0.00343
1287.30 0.00343
1287.40 0.00343
1287.50 0.00343
1287.60 0.00343
1287.70 0.00343
1287.80 0.00343
1287.90 0.00343
1288.00 0.00343
1288.10 0.00343
1288.20 0.00343
1288.30 0.00343
1288.40 0.00343
1288.50 0.00343
1288.60 0.00343
1288.70 0.00343
1288.80 0.00343
1288.90 0.00343
1289.00 0.00343
1289.10 0.00343
1289.20 0.00343
1289.30 0.00343
1289.40 0.00343
1289.50 0.00343
1289.60 0.00343
1289.70 0.00343
1289.80 0.00343
1289.90 0.00343
1290.00 0.00343
1290.10 0.00343
1290.20 0.00343
1290.30 0.00343
1290.40 0.00342
1290.50 0.00342
1290.60 0.00342
1290.70 0.00342
1290.80 0.00342
1290.90 0.00342
1291.00 0.00342
1291.10 0.00342
1291.20 0.00342
1291.30 0.00342
1291.40 0.00342
1291.50 0.00342
1291.60 0.00342
1291.70 0.00342
1291.80 0.00342
1291.90 0.00342
1292.00 0.00342
1292.10 0.00342
1292.20 0.00342
1292.30 0.00342
1292.40 0.00342
1292.50 0.00342
1292.60 0.00341
1292.70 0.00341
1292.80 0.00341
1292.90 0.00341
1293.00 0.00341
1293.10 0.00341
1293.20 0.00341
1293.30 0.00341
1293.40 0.00341
1293.50 0.00341
1293.60 0.00341
1293.70 0.00341
1293.80 0.00340
1293.90 0.00340
1294.00 0.00340
1294.10 0.00340
1294.20 0.00340
1294.30 0.00340
1294.40 0.00340
1294.50 0.00340
1294.60 0.00339
1294.70 0.00339
1294.80 0.00339
1294.90 0.00339
1295.00 0.00339
1295.10 0.00339
1295.20 0.00339
1295.30 0.00338
1295.40 0.00338
1295.50 0.00338
1295.60 0.00338
1295.70 0.00338
1295.80 0.00337
1295.90 0.00337
1296.00 0.00337
1296.10 0.00337
1296.20 0.00337
1296.30 0.00336
1296.40 0.00336
1296.50 0.00336
1296.60 0.00336
1296.70 0.00336
1296.80 0.00335
1296.90 0.00335
1297.00 0.00335
1297.10 0.00335
1297.20 0.00334
1297.30 0.00334
1297.40 0.00334
1297.50 0.00334
1297.60 0.00333
1297.70 0.00333
1297.80 0.00333
1297.90 0.00332
1298.00 0.00332
1298.10 0.00332
1298.20 0.00332
1298.30 0.00331
1298.40 0.00331
1298.50 0.00331
1298.60 0.00330
1298.70 0.00330
1298.80 0.00330
1298.90 0.00329
1299.00 0.00329
1299.10 0.00328
1299.20 0.00328
1299.30 0.00328
1299.40 0.00327
1299.50 0.00327
1299.60 0.00327
1299.70 0.00326
1299.80 0.00326
1299.90 0.00325
1300.00 0.00325
1300.10 0.00324
1300.20 0.00324
1300.30 0.00323
1300.40 0.00322
1300.50 0.00321
1300.60 0.00321
1300.70 0.00320
1300.80 0.00319
1300.90 0.00319
1301.00 0.00318
1301.10 0.00317
1301.20 0.00316
1301.30 0.00316
1301.40 0.00315
1301.50 0.00314
1301.60 0.00313
1301.70 0.00313
1301.80 0.00312
1301.90 0.00311
1302.00 0.00310
1302.10 0.00309
1302.20 0.00309
1302.30 0.00308
1302.40 0.00307
1302.50 0.00306
1302.60 0.00305
1302.70 0.00305
1302.80 0.00304
1302.90 0.00303
1303.00 0.00302
1303.10 0.00301
1303.20 0.00300
1303.30 0.00299
1303.40 0.00299
1303.50 0.00298
1303.60 0.00297
1303.70 0.00296
1303.80 0.00295
1303.90 0.00294
1304.00 0.00293
1304.10 0.00292
1304.20 0.00291
1304.30 0.00290
1304.40 0.00290
1304.50 0.00289
1304.60 0.00288
1304.70 0.00287
1304.80 0.00286
1304.90 0.00285
1305.00 0.00284
1305.10 0.00283
1305.20 0.00282
1305.30 0.00281
1305.40 0.00280
1305.50 0.00279
1305.60 0.00278
1305.70 0.00277
1305.80 0.00276
1305.90 0.00275
1306.00 0.00274
1306.10 0.00273
1306.20 0.00272
1306.30 0.00271
1306.40 0.00270
1306.50 0.00269
1306.60 0.00268
1306.70 0.00267
1306.80 0.00266
1306.90 0.00265
1307.00 0.00264
1307.10 0.00263
1307.20 0.00262
1307.30 0.00261
1307.40 0.00260
1307.50 0.00259
1307.60 0.00258
1307.70 0.00257
1307.80 0.00256
1307.90 0.00255
1308.00 0.00254
1308.10 0.00253
1308.20 0.00252
1308.30 0.00251
1308.40 0.00250
1308.50 0.00249
1308.60 0.00248
1308.70 0.00247
1308.80 0.00246
1308.90 0.00245
1309.00 0.00244
1309.10 0.00243
1309.20 0.00242
1309.30 0.00241
1309.40 0.00240
1309.50 0.00239
1309.60 0.00238
1309.70 0.00237
1309.80 0.00236
1309.90 0.00235
1310.00 0.00234
1310.10 0.00233
1310.20 0.00232
1310.30 0.00231
1310.40 0.00230
1310.50 0.00229
1310.60 0.00228
1310.70 0.00227
1310.80 0.00225
1310.90 0.00224
1311.00 0.00223
1311.10 0.00222
1311.20 0.00221
1311.30 0.00220
1311.40 0.00219
1311.50 0.00218
1311.60 0.00217
1311.70 0.00216
1311.80 0.00215
1311.90 0.00214
1312.00 0.00213
1312.10 0.00212
1312.20 0.00211
1312.30 0.00210
1312.40 0.00209
1312.50 0.00208
1312.60 0.00207
1312.70 0.00206
1312.80 0.00205
1312.90 0.00204
1313.00 0.00204
1313.10 0.00203
1313.20 0.00202
1313.30 0.00201
1313.40 0.00200
1313.50 0.00199
1313.60 0.00198
1313.70 0.00197
1313.80 0.00196
1313.90 0.00195
1314.00 0.00194
1314.10 0.00193
1314.20 0.00192
1314.30 0.00191
1314.40 0.00190
1314.50 0.00189
1314.60 0.00188
1314.70 0.00187
1314.80 0.00187
1314.90 0.00186
1315.00 0.00185
1315.10 0.00184
1315.20 0.00183
1315.30 0.00182
1315.40 0.00181
1315.50 0.00180
1315.60 0.00179
1315.70 0.00179
1315.80 0.00178
1315.90 0.00177
1316.00 0.00176
1316.10 0.00175
1316.20 0.00174
1316.30 0.00174
1316.40 0.00173
1316.50 0.00172
1316.60 0.00171
1316.70 0.00170
1316.80 0.00169
1316.90 0.00169
1317.00 0.00168
1317.10 0.00167
1317.20 0.00166
1317.30 0.00166
1317.40 0.00165
1317.50 0.00164
1317.60 0.00163
1317.70 0.00163
1317.80 0.00162
1317.90 0.00161
1318.00 0.00160
1318.10 0.00160
1318.20 0.00159
1318.30 0.00158
1318.40 0.00158
1318.50 0.00157
1318.60 0.00156
1318.70 0.00156
1318.80 0.00155
1318.90 0.00154
1319.00 0.00154
1319.10 0.00153
1319.20 0.00152
1319.30 0.00152
1319.40 0.00151
1319.50 0.00150
1319.60 0.00150
1319.70 0.00149
1319.80 0.00149
1319.90 0.00148
1320.00 0.00148
1320.10 0.00147
1320.20 0.00147
1320.30 0.00147
1320.40 0.00146
1320.50 0.00146
1320.60 0.00146
1320.70 0.00145
1320.80 0.00145
1320.90 0.00145
1321.00 0.00144
1321.10 0.00144
1321.20 0.00144
1321.30 0.00144
1321.40 0.00143
1321.50 0.00143
1321.60 0.00143
1321.70 0.00143
1321.80 0.00142
1321.90 0.00142
1322.00 0.00142
1322.10 0.00142
1322.20 0.00142
1322.30 0.00141
1322.40 0.00141
1322.50 0.00141
1322.60 0.00141
1322.70 0.00141
1322.80 0.00141
1322.90 0.00140
1323.00 0.00140
1323.10 0.00140
1323.20 0.00140
1323.30 0.00140
1323.40 0.00140
1323.50 0.00140
1323.60 0.00139
1323.70 0.00139
1323.80 0.00139
1323.90 0.00139
1324.00 0.00139
1324.10 0.00139
1324.20 0.00139
1324.30 0.00139
1324.40 0.00139
1324.50 0.00139
1324.60 0.00139
1324.70 0.00139
1324.80 0.00139
1324.90 0.00139
1325.00 0.00138
1325.10 0.00138
1325.20 0.00138
1325.30 0.00138
1325.40 0.00138
1325.50 0.00138
1325.60 0.00138
1325.70 0.00138
1325.80 0.00138
1325.90 0.00138
1326.00 0.00138
1326.10 0.00138
1326.20 0.00138
1326.30 0.00138
1326.40 0.00138
1326.50 0.00138
1326.60 0.00138
1326.70 0.00138
1326.80 0.00139
1326.90 0.00139
1327.00 0.00139
1327.10 0.00139
1327.20 0.00139
1327.30 0.00139
1327.40 0.00139
1327.50 0.00139
1327.60 0.00139
1327.70 0.00139
1327.80 0.00139
1327.90 0.00139
1328.00 0.00139
1328.10 0.00139
1328.20 0.00139
1328.30 0.00139
1328.40 0.00140
1328.50 0.00140
1328.60 0.00140
1328.70 0.00140
1328.80 0.00140
1328.90 0.00140
1329.00 0.00140
1329.10 0.00140
1329.20 0.00140
1329.30 0.00140
1329.40 0.00141
1329.50 0.00141
1329.60 0.00141
1329.70 0.00141
1329.80 0.00141
1329.90 0.00141
1330.00 0.00141
1330.10 0.00141
1330.20 0.00142
1330.30 0.00142
1330.40 0.00142
1330.50 0.00142
1330.60 0.00142
1330.70 0.00142
1330.80 0.00142
1330.90 0.00142
1331.00 0.00143
1331.10 0.00143
1331.20 0.00143
1331.30 0.00143
1331.40 0.00143
1331.50 0.00143
1331.60 0.00143
1331.70 0.00144
1331.80 0.00144
1331.90 0.00144
1332.00 0.00144
1332.10 0.00144
1332.20 0.00144
1332.30 0.00144
1332.40 0.00145
1332.50 0.00145
1332.60 0.00145
1332.70 0.00145
1332.80 0.00145
1332.90 0.00145
1333.00 0.00145
1333.10 0.00146
1333.20 0.00146
1333.30 0.00146
1333.40 0.00146
1333.50 0.00146
1333.60 0.00146
1333.70 0.00147
1333.80 0.00147
1333.90 0.00147
1334.00 0.00147
1334.10 0.00147
1334.20 0.00147
1334.30 0.00147
1334.40 0.00148
1334.50 0.00148
1334.60 0.00148
1334.70 0.00148
1334.80 0.00148
1334.90 0.00148
1335.00 0.00148
1335.10 0.00148
1335.20 0.00149
1335.30 0.00149
1335.40 0.00149
1335.50 0.00149
1335.60 0.00149
1335.70 0.00149
1335.80 0.00149
1335.90 0.00149
1336.00 0.00150
1336.10 0.00150
1336.20 0.00150
1336.30 0.00150
1336.40 0.00150
1336.50 0.00150
1336.60 0.00150
1336.70 0.00150
1336.80 0.00150
1336.90 0.00151
1337.00 0.00151
1337.10 0.00151
1337.20 0.00151
1337.30 0.00151
1337.40 0.00151
1337.50 0.00151
1337.60 0.00151
1337.70 0.00151
1337.80 0.00151
1337.90 0.00151
1338.00 0.00151
1338.10 0.00152
1338.20 0.00152
1338.30 0.00152
1338.40 0.00152
1338.50 0.00152
1338.60 0.00152
1338.70 0.00152
1338.80 0.00152
1338.90 0.00152
1339.00 0.00152
1339.10 0.00152
1339.20 0.00152
1339.30 0.00152
1339.40 0.00152
1339.50 0.00152
1339.60 0.00152
1339.70 0.00152
1339.80 0.00152
1339.90 0.00152
1340.00 0.00152
1340.10 0.00152
1340.20 0.00152
1340.30 0.00152
1340.40 0.00152
1340.50 0.00151
1340.60 0.00151
1340.70 0.00151
1340.80 0.00151
1340.90 0.00151
1341.00 0.00151
1341.10 0.00151
1341.20 0.00150
1341.30 0.00150
1341.40 0.00150
1341.50 0.00150
1341.60 0.00150
1341.70 0.00150
1341.80 0.00150
1341.90 0.00149
1342.00 0.00149
1342.10 0.00149
1342.20 0.00149
1342.30 0.00149
1342.40 0.00149
1342.50 0.00148
1342.60 0.00148
1342.70 0.00148
1342.80 0.00148
1342.90 0.00148
1343.00 0.00148
1343.10 0.00147
1343.20 0.00147
1343.30 0.00147
1343.40 0.00147
1343.50 0.00147
1343.60 0.00146
1343.70 0.00146
1343.80 0.00146
1343.90 0.00146
1344.00 0.00146
1344.10 0.00145
1344.20 0.00145
1344.30 0.00145
1344.40 0.00145
1344.50 0.00145
1344.60 0.00144
1344.70 0.00144
1344.80 0.00144
1344.90 0.00144
1345.00 0.00144
1345.10 0.00143
1345.20 0.00143
1345.30 0.00143
1345.40 0.00143
1345.50 0.00142
1345.60 0.00142
1345.70 0.00142
1345.80 0.00142
1345.90 0.00142
1346.00 0.00141
1346.10 0.00141
1346.20 0.00141
1346.30 0.00141
1346.40 0.00140
1346.50 0.00140
1346.60 0.00140
1346.70 0.00140
1346.80 0.00139
1346.90 0.00139
1347.00 0.00139
1347.10 0.00139
1347.20 0.00138
1347.30 0.00138
1347.40 0.00138
1347.50 0.00138
1347.60 0.00137
1347.70 0.00137
1347.80 0.00137
1347.90 0.00137
1348.00 0.00136
1348.10 0.00136
1348.20 0.00136
1348.30 0.00135
1348.40 0.00135
1348.50 0.00135
1348.60 0.00135
1348.70 0.00134
1348.80 0.00134
1348.90 0.00134
1349.00 0.00133
1349.10 0.00133
1349.20 0.00133
1349.30 0.00133
1349.40 0.00132
1349.50 0.00132
1349.60 0.00132
1349.70 0.00131
1349.80 0.00131
1349.90 0.00131
1350.00 0.00131
1350.10 0.00130
1350.20 0.00130
1350.30 0.00130
1350.40 0.00129
1350.50 0.00129
1350.60 0.00129
1350.70 0.00128
1350.80 0.00128
1350.90 0.00128
1351.00 0.00127
1351.10 0.00127
1351.20 0.00127
1351.30 0.00127
1351.40 0.00126
1351.50 0.00126
1351.60 0.00126
1351.70 0.00125
1351.80 0.00125
1351.90 0.00125
1352.00 0.00124
1352.10 0.00124
1352.20 0.00124
1352.30 0.00123
1352.40 0.00123
1352.50 0.00123
1352.60 0.00122
1352.70 0.00122
1352.80 0.00122
1352.90 0.00121
1353.00 0.00121
1353.10 0.00121
1353.20 0.00120
1353.30 0.00120
1353.40 0.00120
1353.50 0.00119
1353.60 0.00119
1353.70 0.00119
1353.80 0.00118
1353.90 0.00118
1354.00 0.00117
1354.10 0.00117
1354.20 0.00117
1354.30 0.00116
1354.40 0.00116
1354.50 0.00116
1354.60 0.00115
1354.70 0.00115
1354.80 0.00115
1354.90 0.00114
1355.00 0.00114
1355.10 0.00113
1355.20 0.00113
1355.30 0.00113
1355.40 0.00112
1355.50 0.00112
1355.60 0.00112
1355.70 0.00111
1355.80 0.00111
1355.90 0.00111
1356.00 0.00110
1356.10 0.00110
1356.20 0.00109
1356.30 0.00109
1356.40 0.00109
1356.50 0.00108
1356.60 0.00108
1356.70 0.00107
1356.80 0.00107
1356.90 0.00107
1357.00 0.00106
1357.10 0.00106
1357.20 0.00106
1357.30 0.00105
1357.40 0.00105
1357.50 0.00104
1357.60 0.00104
1357.70 0.00104
1357.80 0.00103
1357.90 0.00103
1358.00 0.00102
1358.10 0.00102
1358.20 0.00102
1358.30 0.00101
1358.40 0.00101
1358.50 0.00100
1358.60 0.00100
1358.70 0.00100
1358.80 0.00099
1358.90 0.00099
1359.00 0.00098
1359.10 0.00098
1359.20 0.00098
1359.30 0.00097
1359.40 0.00097
1359.50 0.00096
1359.60 0.00096
1359.70 0.00095
1359.80 0.00095
1359.90 0.00095
1360.00 0.00094
1360.10 0.00094
1360.20 0.00093
1360.30 0.00093
1360.40 0.00092
1360.50 0.00092
1360.60 0.00091
1360.70 0.00091
1360.80 0.00091
1360.90 0.00090
1361.00 0.00090
1361.10 0.00089
1361.20 0.00089
1361.30 0.00088
1361.40 0.00088
1361.50 0.00087
1361.60 0.00087
1361.70 0.00086
1361.80 0.00086
1361.90 0.00085
1362.00 0.00085
1362.10 0.00084
1362.20 0.00084
1362.30 0.00083
1362.40 0.00083
1362.50 0.00082
1362.60 0.00082
1362.70 0.00081
1362.80 0.00081
1362.90 0.00080
1363.00 0.00080
1363.10 0.00079
1363.20 0.00079
1363.30 0.00078
1363.40 0.00078
1363.50 0.00077
1363.60 0.00077
1363.70 0.00076
1363.80 0.00076
1363.90 0.00075
1364.00 0.00075
1364.10 0.00074
1364.20 0.00074
1364.30 0.00073
1364.40 0.00073
1364.50 0.00072
1364.60 0.00071
1364.70 0.00071
1364.80 0.00070
1364.90 0.00070
1365.00 0.00069
1365.10 0.00069
1365.20 0.00068
1365.30 0.00068
1365.40 0.00067
1365.50 0.00067
1365.60 0.00066
1365.70 0.00066
1365.80 0.00065
1365.90 0.00065
1366.00 0.00064
1366.10 0.00063
1366.20 0.00063
1366.30 0.00062
1366.40 0.00062
1366.50 0.00061
1366.60 0.00061
1366.70 0.00060
1366.80 0.00060
1366.90 0.00059
1367.00 0.00059
1367.10 0.00058
1367.20 0.00058
1367.30 0.00057
1367.40 0.00057
1367.50 0.00056
1367.60 0.00055
1367.70 0.00055
1367.80 0.00054
1367.90 0.00054
1368.00 0.00053
1368.10 0.00053
1368.20 0.00052
1368.30 0.00052
1368.40 0.00051
1368.50 0.00051
1368.60 0.00050
1368.70 0.00050
1368.80 0.00049
1368.90 0.00048
1369.00 0.00048
1369.10 0.00047
1369.20 0.00047
1369.30 0.00046
1369.40 0.00046
1369.50 0.00045
1369.60 0.00045
1369.70 0.00044
1369.80 0.00044
1369.90 0.00043
1370.00 0.00043
1370.10 0.00042
1370.20 0.00042
1370.30 0.00041
1370.40 0.00041
1370.50 0.00040
1370.60 0.00039
1370.70 0.00039
1370.80 0.00038
1370.90 0.00038
1371.00 0.00037
1371.10 0.00037
1371.20 0.00036
1371.30 0.00036
1371.40 0.00035
1371.50 0.00035
1371.60 0.00034
1371.70 0.00034
1371.80 0.00033
1371.90 0.00033
1372.00 0.00032
1372.10 0.00032
1372.20 0.00031
1372.30 0.00031
1372.40 0.00030
1372.50 0.00030
1372.60 0.00029
1372.70 0.00029
1372.80 0.00028
1372.90 0.00028
1373.00 0.00027
1373.10 0.00027
1373.20 0.00026
1373.30 0.00026
1373.40 0.00025
1373.50 0.00025
1373.60 0.00025
1373.70 0.00024
1373.80 0.00024
1373.90 0.00023
1374.00 0.00023
1374.10 0.00022
1374.20 0.00022
1374.30 0.00021
1374.40 0.00021
1374.50 0.00020
1374.60 0.00020
1374.70 0.00019
1374.80 0.00019
1374.90 0.00019
1375.00 0.00018
1375.10 0.00018
1375.20 0.00017
1375.30 0.00017
1375.40 0.00016
1375.50 0.00016
1375.60 0.00016
1375.70 0.00015
1375.80 0.00015
1375.90 0.00014
1376.00 0.00014
1376.10 0.00013
1376.20 0.00013
1376.30 0.00013
1376.40 0.00012
1376.50 0.00012
1376.60 0.00011
1376.70 0.00011
1376.80 0.00011
1376.90 0.00010
1377.00 0.00010
1377.10 0.00010
1377.20 0.00009
1377.30 0.00009
1377.40 0.00008
1377.50 0.00008
1377.60 0.00008
1377.70 0.00007
1377.80 0.00007
1377.90 0.00007
1378.00 0.00006
1378.10 0.00006
1378.20 0.00006
1378.30 0.00005
1378.40 0.00005
1378.50 0.00005
1378.60 0.00004
1378.70 0.00004
1378.80 0.00004
1378.90 0.00003
1379.00 0.00003
1379.10 0.00003
1379.20 0.00002
1379.30 0.00002
1379.40 0.00002
1379.50 0.00001
1379.60 0.00001
1379.70 0.00001
1379.80 0.00001
1379.90 0.00000
1380.00 0.00000
1380.10 0.00000
1380.20 0.00000
1380.30 0.00000
1380.40 0.00000
1380.50 0.00000
1380.60 0.00000
1380.70 0.00000
1380.80 0.00000
1380.90 0.00000
1381.00 0.00000
1381.10 0.00000
1381.20 0.00000
1381.30 0.00000
1381.40 0.00000
1381.50 0.00000
1381.60 0.00000
1381.70 0.00000
1381.80 0.00000
1381.90 0.00000
1382.00 0.00000
1382.10 0.00000
1382.20 0.00000
1382.30 0.00000
1382.40 0.00000
1382.50 0.00000
1382.60 0.00000
1382.70 0.00000
1382.80 0.00000
1382.90 0.00000
1383.00 0.00000
1383.10 0.00000
1383.20 0.00000
1383.30 0.00000
1383.40 0.00000
1383.50 0.00000
1383.60 0.00000
1383.70 0.00000
1383.80 0.00000
1383.90 0.00000
1384.00 0.00000
1384.10 0.00000
1384.20 0.00000
1384.30 0.00000
1384.40 0.00000
1384.50 0.00000
1384.60 0.00000
1384.70 0.00000
1384.80 0.00000
1384.90 0.00000
1385.00 0.00000
1385.10 0.00000
1385.20 0.00000
1385.30 0.00000
1385.40 0.00000
1385.50 0.00000
1385.60 0.00000
1385.70 0.00000
1385.80 0.00000
1385.90 0.00000
1386.00 0.00000
1386.10 0.00000
1386.20 0.00000
1386.30 0.00000
1386.40 0.00000
1386.50 0.00000
1386.60 0.00000
1386.70 0.00000
1386.80 0.00000
1386.90 0.00000
1387.00 0.00000
1387.10 0.00000
1387.20 0.00000
1387.30 0.00000
1387.40 0.00000
1387.50 0.00000
1387.60 0.00000
1387.70 0.00000
1387.80 0.00000
1387.90 0.00000
1388.00 0.00000
1388.10 0.00000
1388.20 0.00000
1388.30 0.00000
1388.40 0.00000
1388.50 0.00000
1388.60 0.00000
1388.70 0.00000
1388.80 0.00000
1388.90 0.00000
1389.00 0.00000
1389.10 0.00000
1389.20 0.00000
1389.30 0.00000
1389.40 0.00000
1389.50 0.00000
1389.60 0.00000
1389.70 0.00000
1389.80 0.00000
1389.90 0.00000
1390.00 0.00000
1390.10 0.00000
1390.20 0.00000
1390.30 0.00000
1390.40 0.00000
1390.50 0.00000
1390.60 0.00000
1390.70 0.00000
1390.80 0.00000
1390.90 0.00000
1391.00 0.00000
1391.10 0.00000
1391.20 0.00000
1391.30 0.00000
1391.40 0.00000
1391.50 0.00000
1391.60 0.00000
1391.70 0.00000
1391.80 0.00000
1391.90 0.00000
1392.00 0.00000
1392.10 0.00000
1392.20 0.00000
1392.30 0.00000
1392.40 0.00000
1392.50 0.00000
1392.60 0.00000
1392.70 0.00000
1392.80 0.00000
1392.90 0.00000
1393.00 0.00000
1393.10 0.00000
1393.20 0.00000
1393.30 0.00000
1393.40 0.00000
1393.50 0.00000
1393.60 0.00000
1393.70 0.00000
1393.80 0.00000
1393.90 0.00000
1394.00 0.00000
1394.10 0.00000
1394.20 0.00000
1394.30 0.00000
1394.40 0.00000
1394.50 0.00000
1394.60 0.00000
1394.70 0.00000
1394.80 0.00000
1394.90 0.00000
1395.00 0.00000
1395.10 0.00000
1395.20 0.00000
1395.30 0.00000
1395.40 0.00000
1395.50 0.00000
1395.60 0.00000
1395.70 0.00000
1395.80 0.00000
1395.90 0.00000
1396.00 0.00000
1396.10 0.00000
1396.20 0.00000
1396.30 0.00000
1396.40 0.00000
1396.50 0.00000
1396.60 0.00000
1396.70 0.00000
1396.80 0.00000
1396.90 0.00000
1397.00 0.00000
1397.10 0.00000
1397.20 0.00000
1397.30 0.00000
1397.40 0.00000
1397.50 0.00000
1397.60 0.00000
1397.70 0.00000
1397.80 0.00000
1397.90 0.00000
1398.00 0.00000
1398.10 0.00000
1398.20 0.00000
1398.30 0.00000
1398.40 0.00000
1398.50 0.00000
1398.60 0.00000
1398.70 0.00000
1398.80 0.00000
1398.90 0.00000
1399.00 0.00000
1399.10 0.00000
1399.20 0.00000
1399.30 0.00000
1399.40 0.00000
1399.50 0.00000
1399.60 0.00000
1399.70 0.00000
1399.80 0.00000
1399.90 0.00000
1400.00 0.00000
1400.10 0.00000
1400.20 0.00000
1400.30 0.00000
1400.40 0.00000
1400.50 0.00000
1400.60 0.00000
1400.70 0.00000
1400.80 0.00000
1400.90 0.00000
1401.00 0.00000
1401.10 0.00000
1401.20 0.00000
1401.30 0.00000
1401.40 0.00000
1401.50 0.00000
1401.60 0.00000
1401.70 0.00000
1401.80 0.00000
1401.90 0.00000
1402.00 0.00000
1402.10 0.00000
1402.20 0.00000
1402.30 0.00000
1402.40 0.00000
1402.50 0.00000
1402.60 0.00000
1402.70 0.00000
1402.80 0.00000
1402.90 0.00000
1403.00 0.00000
1403.10 0.00000
1403.20 0.00000
1403.30 0.00000
1403.40 0.00000
1403.50 0.00000
1403.60 0.00000
1403.70 0.00000
1403.80 0.00000
1403.90 0.00000
1404.00 0.00000
1404.10 0.00000
1404.20 0.00000
1404.30 0.00000
1404.40 0.00000
1404.50 0.00000
1404.60 0.00000
1404.70 0.00000
1404.80 0.00000
1404.90 0.00000
1405.00 0.00000
1405.10 0.00000
1405.20 0.00000
1405.30 0.00000
1405.40 0.00000
1405.50 0.00000
1405.60 0.00000
1405.70 0.00000
1405.80 0.00000
1405.90 0.00000
1406.00 0.00000
1406.10 0.00000
1406.20 0.00000
1406.30 0.00000
1406.40 0.00000
1406.50 0.00000
1406.60 0.00000
1406.70 0.00000
1406.80 0.00000
1406.90 0.00000
1407.00 0.00000
1407.10 0.00000
1407.20 0.00000
1407.30 0.00000
1407.40 0.00000
1407.50 0.00000
1407.60 0.00000
1407.70 0.00000
1407.80 0.00000
1407.90 0.00000
1408.00 0.00000
1408.10 0.00000
1408.20 0.00000
1408.30 0.00000
1408.40 0.00000
1408.50 0.00000
1408.60 0.00000
1408.70 0.00000
1408.80 0.00000
1408.90 0.00000
1409.00 0.00000
1409.10 0.00000
1409.20 0.00000
1409.30 0.00000
1409.40 0.00000
1409.50 0.00000
1409.60 0.00000
1409.70 0.00000
1409.80 0.00000
1409.90 0.00000
1410.00 0.00000
1410.10 0.00000
1410.20 0.00000
1410.30 0.00000
1410.40 0.00000
1410.50 0.00000
1410.60 0.00000
1410.70 0.00000
1410.80 0.00000
1410.90 0.00000
1411.00 0.00000
1411.10 0.00000
1411.20 0.00000
1411.30 0.00000
1411.40 0.00000
1411.50 0.00000
1411.60 0.00000
1411.70 0.00000
1411.80 0.00000
1411.90 0.00000
1412.00 0.00000
1412.10 0.00000
1412.20 0.00000
1412.30 0.00000
1412.40 0.00000
1412.50 0.00000
1412.60 0.00000
1412.70 0.00000
1412.80 0.00000
1412.90 0.00000
1413.00 0.00000
1413.10 0.00000
1413.20 0.00000
1413.30 0.00000
1413.40 0.00000
1413.50 0.00000
1413.60 0.00000
1413.70 0.00000
1413.80 0.00000
1413.90 0.00000
1414.00 0.00000
1414.10 0.00000
1414.20 0.00000
1414.30 0.00000
1414.40 0.00000
1414.50 0.00000
1414.60 0.00000
1414.70 0.00000
1414.80 0.00000
1414.90 0.00000
1415.00 0.00000
1415.10 0.00000
1415.20 0.00000
1415.30 0.00000
1415.40 0.00000
1415.50 0.00000
1415.60 0.00000
1415.70 0.00000
1415.80 0.00000
1415.90 0.00000
1416.00 0.00000
1416.10 0.00000
1416.20 0.00000
1416.30 0.00000
1416.40 0.00000
1416.50 0.00000
1416.60 0.00000
1416.70 0.00000
1416.80 0.00000
1416.90 0.00000
1417.00 0.00000
1417.10 0.00000
1417.20 0.00000
1417.30 0.00000
1417.40 0.00000
1417.50 0.00000
1417.60 0.00000
1417.70 0.00000
1417.80 0.00000
1417.90 0.00000
1418.00 0.00000
1418.10 0.00000
1418.20 0.00000
1418.30 0.00000
1418.40 0.00000
1418.50 0.00000
1418.60 0.00000
1418.70 0.00000
1418.80 0.00000
1418.90 0.00000
1419.00 0.00000
1419.10 0.00000
1419.20 0.00000
1419.30 0.00000
1419.40 0.00000
1419.50 0.00000
1419.60 0.00000
1419.70 0.00000
1419.80 0.00000
1419.90 0.00000
1420.00 0.00000
1420.10 0.00000
1420.20 0.00000
1420.30 0.00000
1420.40 0.00000
1420.50 0.00000
1420.60 0.00000
1420.70 0.00000
1420.80 0.00000
1420.90 0.00000
1421.00 0.00000
1421.10 0.00000
1421.20 0.00000
1421.30 0.00000
1421.40 0.00000
1421.50 0.00000
1421.60 0.00000
1421.70 0.00000
1421.80 0.00000
1421.90 0.00000
1422.00 0.00000
1422.10 0.00000
1422.20 0.00000
1422.30 0.00000
1422.40 0.00000
1422.50 0.00000
1422.60 0.00000
1422.70 0.00000
1422.80 0.00000
1422.90 0.00000
1423.00 0.00000
1423.10 0.00000
1423.20 0.00000
1423.30 0.00000
1423.40 0.00000
1423.50 0.00000
1423.60 0.00000
1423.70 0.00000
1423.80 0.00000
1423.90 0.00000
1424.00 0.00000
1424.10 0.00000
1424.20 0.00000
1424.30 0.00000
1424.40 0.00000
1424.50 0.00000
1424.60 0.00000
1424.70 0.00000
1424.80 0.00000
1424.90 0.00000
1425.00 0.00000
1425.10 0.00000
1425.20 0.00000
1425.30 0.00000
1425.40 0.00000
1425.50 0.00000
1425.60 0.00000
1425.70 0.00000
1425.80 0.00000
1425.90 0.00000
1426.00 0.00000
1426.10 0.00000
1426.20 0.00000
1426.30 0.00000
1426.40 0.00000
1426.50 0.00000
1426.60 0.00000
1426.70 0.00000
1426.80 0.00000
1426.90 0.00000
1427.00 0.00000
1427.10 0.00000
1427.20 0.00000
1427.30 0.00000
1427.40 0.00000
1427.50 0.00000
1427.60 0.00000
1427.70 0.00000
1427.80 0.00000
1427.90 0.00000
1428.00 0.00000
1428.10 0.00000
1428.20 0.00000
1428.30 0.00000
1428.40 0.00000
1428.50 0.00000
1428.60 0.00000
1428.70 0.00000
1428.80 0.00000
1428.90 0.00000
1429.00 0.00000
1429.10 0.00000
1429.20 0.00000
1429.30 0.00000
1429.40 0.00000
1429.50 0.00000
1429.60 0.00000
1429.70 0.00000
1429.80 0.00000
1429.90 0.00000
1430.00 0.00000
1430.10 0.00000
1430.20 0.00000
1430.30 0.00000
1430.40 0.00000
1430.50 0.00000
1430.60 0.00000
1430.70 0.00000
1430.80 0.00000
1430.90 0.00000
1431.00 0.00000
1431.10 0.00000
1431.20 0.00000
1431.30 0.00000
1431.40 0.00000
1431.50 0.00000
1431.60 0.00000
1431.70 0.00000
1431.80 0.00000
1431.90 0.00000
1432.00 0.00000
1432.10 0.00000
1432.20 0.00000
1432.30 0.00000
1432.40 0.00000
1432.50 0.00000
1432.60 0.00000
1432.70 0.00000
1432.80 0.00000
1432.90 0.00000
1433.00 0.00000
1433.10 0.00000
1433.20 0.00000
1433.30 0.00000
1433.40 0.00000
1433.50 0.00000
1433.60 0.00000
1433.70 0.00000
1433.80 0.00000
1433.90 0.00000
1434.00 0.00000
1434.10 0.00000
1434.20 0.00000
1434.30 0.00000
1434.40 0.00000
1434.50 0.00000
1434.60 0.00000
1434.70 0.00000
1434.80 0.00000
1434.90 0.00000
1435.00 0.00000
1435.10 0.00000
1435.20 0.00000
1435.30 0.00000
1435.40 0.00000
1435.50 0.00000
1435.60 0.00000
1435.70 0.00000
1435.80 0.00000
1435.90 0.00000
1436.00 0.00000
1436.10 0.00000
1436.20 0.00000
1436.30 0.00000
1436.40 0.00000
1436.50 0.00000
1436.60 0.00000
1436.70 0.00000
1436.80 0.00000
1436.90 0.00000
1437.00 0.00000
1437.10 0.00000
1437.20 0.00000
1437.30 0.00000
1437.40 0.00000
1437.50 0.00000
1437.60 0.00000
1437.70 0.00000
1437.80 0.00000
1437.90 0.00000
1438.00 0.00000
1438.10 0.00000
1438.20 0.00000
1438.30 0.00000
1438.40 0.00000
1438.50 0.00000
1438.60 0.00000
1438.70 0.00000
1438.80 0.00000
1438.90 0.00000
1439.00 0.00000
1439.10 0.00000
1439.20 0.00000
1439.30 0.00000
1439.40 0.00000
1439.50 0.00000
1439.60 0.00000
1439.70 0.00000
1439.80 0.00000
1439.90 0.00000
1440.00 0.00000
1440.10 0.00000
1440.20 0.00000
1440.30 0.00000
1440.40 0.00000
1440.50 0.00000
1440.60 0.00000
1440.70 0.00000
1440.80 0.00000
1440.90 0.00000
1441.00 0.00000
1441.10 0.00000
1441.20 0.00000
1441.30 0.00000
1441.40 0.00000
1441.50 0.00000
1441.60 0.00000
1441.70 0.00000
1441.80 0.00000
1441.90 0.00000
1442.00 0.00000
1442.10 0.00000
1442.20 0.00000
1442.30 0.00000
1442.40 0.00000
1442.50 0.00000
1442.60 0.00000
1442.70 0.00000
1442.80 0.00000
1442.90 0.00000
1443.00 0.00000
1443.10 0.00000
1443.20 0.00000
1443.30 0.00000
1443.40 0.00000
1443.50 0.00000
1443.60 0.00000
1443.70 0.00000
1443.80 0.00000
1443.90 0.00000
1444.00 0.00000
1444.10 0.00000
1444.20 0.00000
1444.30 0.00000
1444.40 0.00000
1444.50 0.00000
1444.60 0.00000
1444.70 0.00000
1444.80 0.00000
1444.90 0.00000
1445.00 0.00000
1445.10 0.00000
1445.20 0.00000
1445.30 0.00000
1445.40 0.00000
1445.50 0.00000
1445.60 0.00000
1445.70 0.00000
1445.80 0.00000
1445.90 0.00000
1446.00 0.00000
1446.10 0.00000
1446.20 0.00000
1446.30 0.00000
1446.40 0.00000
1446.50 0.00000
1446.60 0.00000
1446.70 0.00000
1446.80 0.00000
1446.90 0.00000
1447.00 0.00000
1447.10 0.00000
1447.20 0.00000
1447.30 0.00000
1447.40 0.00000
1447.50 0.00000
1447.60 0.00000
1447.70 0.00000
1447.80 0.00000
1447.90 0.00000
1448.00 0.00000
1448.10 0.00000
1448.20 0.00000
1448.30 0.00000
1448.40 0.00000
1448.50 0.00000
1448.60 0.00000
1448.70 0.00000
1448.80 0.00000
1448.90 0.00000
1449.00 0.00000
1449.10 0.00000
1449.20 0.00000
1449.30 0.00000
1449.40 0.00000
1449.50 0.00000
1449.60 0.00000
1449.70 0.00000
1449.80 0.00000
1449.90 0.00000
1450.00 0.00000
1450.10 0.00000
1450.20 0.00000
1450.30 0.00000
1450.40 0.00000
1450.50 0.00000
1450.60 0.00000
1450.70 0.00000
1450.80 0.00000
1450.90 0.00000
1451.00 0.00000
1451.10 0.00000
1451.20 0.00000
1451.30 0.00000
1451.40 0.00000
1451.50 0.00000
1451.60 0.00000
1451.70 0.00000
1451.80 0.00000
1451.90 0.00000
1452.00 0.00000
1452.10 0.00000
1452.20 0.00000
1452.30 0.00000
1452.40 0.00000
1452.50 0.00000
1452.60 0.00000
1452.70 0.00000
1452.80 0.00000
1452.90 0.00000
1453.00 0.00000
1453.10 0.00000
1453.20 0.00000
1453.30 0.00000
1453.40 0.00000
1453.50 0.00000
1453.60 0.00000
1453.70 0.00000
1453.80 0.00000
1453.90 0.00000
1454.00 0.00000
1454.10 0.00000
1454.20 0.00000
1454.30 0.00000
1454.40 0.00000
1454.50 0.00000
1454.60 0.00000
1454.70 0.00000
1454.80 0.00000
1454.90 0.00000
1455.00 0.00000
1455.10 0.00000
1455.20 0.00000
1455.30 0.00000
1455.40 0.00000
1455.50 0.00000
1455.60 0.00000
1455.70 0.00000
1455.80 0.00000
1455.90 0.00000
1456.00 0.00000
1456.10 0.00000
1456.20 0.00000
1456.30 0.00000
1456.40 0.00000
1456.50 0.00000
1456.60 0.00000
1456.70 0.00000
1456.80 0.00000
1456.90 0.00000
1457.00 0.00000
1457.10 0.00000
1457.20 0.00000
1457.30 0.00000
1457.40 0.00000
1457.50 0.00000
1457.60 0.00000
1457.70 0.00000
1457.80 0.00000
1457.90 0.00000
1458.00 0.00000
1458.10 0.00000
1458.20 0.00000
1458.30 0.00000
1458.40 0.00000
1458.50 0.00000
1458.60 0.00000
1458.70 0.00000
1458.80 0.00000
1458.90 0.00000
1459.00 0.00000
1459.10 0.00000
1459.20 0.00000
1459.30 0.00000
1459.40 0.00000
1459.50 0.00000
1459.60 0.00000
1459.70 0.00000
1459.80 0.00000
1459.90 0.00000
1460.00 0.00000
1460.10 0.00000
1460.20 0.00000
1460.30 0.00000
1460.40 0.00000
1460.50 0.00000
1460.60 0.00000
1460.70 0.00000
1460.80 0.00000
1460.90 0.00000
1461.00 0.00000
1461.10 0.00000
1461.20 0.00000
1461.30 0.00000
1461.40 0.00000
1461.50 0.00000
1461.60 0.00000
1461.70 0.00000
1461.80 0.00000
1461.90 0.00000
1462.00 0.00000
1462.10 0.00000
1462.20 0.00000
1462.30 0.00000
1462.40 0.00000
1462.50 0.00000
1462.60 0.00000
1462.70 0.00000
1462.80 0.00000
1462.90 0.00000
1463.00 0.00000
1463.10 0.00000
1463.20 0.00000
1463.30 0.00000
1463.40 0.00000
1463.50 0.00000
1463.60 0.00000
1463.70 0.00000
1463.80 0.00000
1463.90 0.00000
1464.00 0.00000
1464.10 0.00000
1464.20 0.00000
1464.30 0.00000
1464.40 0.00000
1464.50 0.00000
1464.60 0.00000
1464.70 0.00000
1464.80 0.00000
1464.90 0.00000
1465.00 0.00000
1465.10 0.00000
1465.20 0.00000
1465.30 0.00000
1465.40 0.00000
1465.50 0.00000
1465.60 0.00000
1465.70 0.00000
1465.80 0.00000
1465.90 0.00000
1466.00 0.00000
1466.10 0.00000
1466.20 0.00000
1466.30 0.00000
1466.40 0.00000
1466.50 0.00000
1466.60 0.00000
1466.70 0.00000
1466.80 0.00000
1466.90 0.00000
1467.00 0.00000
1467.10 0.00000
1467.20 0.00000
1467.30 0.00000
1467.40 0.00000
1467.50 0.00000
1467.60 0.00000
1467.70 0.00000
1467.80 0.00000
1467.90 0.00000
1468.00 0.00000
1468.10 0.00000
1468.20 0.00000
1468.30 0.00000
1468.40 0.00000
1468.50 0.00000
1468.60 0.00000
1468.70 0.00000
1468.80 0.00000
1468.90 0.00000
1469.00 0.00000
1469.10 0.00000
1469.20 0.00000
1469.30 0.00000
1469.40 0.00000
1469.50 0.00000
1469.60 0.00000
1469.70 0.00000
1469.80 0.00000
1469.90 0.00000
1470.00 0.00000
1470.10 0.00000
1470.20 0.00000
1470.30 0.00000
1470.40 0.00000
1470.50 0.00000
1470.60 0.00000
1470.70 0.00000
1470.80 0.00000
1470.90 0.00000
1471.00 0.00000
1471.10 0.00000
1471.20 0.00000
1471.30 0.00000
1471.40 0.00000
1471.50 0.00000
1471.60 0.00000
1471.70 0.00000
1471.80 0.00000
1471.90 0.00000
1472.00 0.00000
1472.10 0.00000
1472.20 0.00000
1472.30 0.00000
1472.40 0.00000
1472.50 0.00000
1472.60 0.00000
1472.70 0.00000
1472.80 0.00000
1472.90 0.00000
1473.00 0.00000
1473.10 0.00000
1473.20 0.00000
1473.30 0.00000
1473.40 0.00000
1473.50 0.00000
1473.60 0.00000
1473.70 0.00000
1473.80 0.00000
1473.90 0.00000
1474.00 0.00000
1474.10 0.00000
1474.20 0.00000
1474.30 0.00000
1474.40 0.00000
1474.50 0.00000
1474.60 0.00000
1474.70 0.00000
1474.80 0.00000
1474.90 0.00000
1475.00 0.00000
1475.10 0.00000
1475.20 0.00000
1475.30 0.00000
1475.40 0.00000
1475.50 0.00000
1475.60 0.00000
1475.70 0.00000
1475.80 0.00000
1475.90 0.00000
1476.00 0.00000
1476.10 0.00000
1476.20 0.00000
1476.30 0.00000
1476.40 0.00000
1476.50 0.00000
1476.60 0.00000
1476.70 0.00000
1476.80 0.00000
1476.90 0.00000
1477.00 0.00000
1477.10 0.00000
1477.20 0.00000
1477.30 0.00000
1477.40 0.00000
1477.50 0.00000
1477.60 0.00000
1477.70 0.00000
1477.80 0.00000
1477.90 0.00000
1478.00 0.00000
1478.10 0.00000
1478.20 0.00000
1478.30 0.00000
1478.40 0.00000
1478.50 0.00000
1478.60 0.00000
1478.70 0.00000
1478.80 0.00000
1478.90 0.00000
1479.00 0.00000
1479.10 0.00000
1479.20 0.00000
1479.30 0.00000
1479.40 0.00000
1479.50 0.00000
1479.60 0.00000
1479.70 0.00000
1479.80 0.00000
1479.90 0.00000
1480.00 0.00000
1480.10 0.00000
1480.20 0.00001
1480.30 0.00001
1480.40 0.00001
1480.50 0.00002
1480.60 0.00002
1480.70 0.00002
1480.80 0.00003
1480.90 0.00003
1481.00 0.00003
1481.10 0.00004
1481.20 0.00004
1481.30 0.00004
1481.40 0.00005
1481.50 0.00005
1481.60 0.00006
1481.70 0.00006
1481.80 0.00006
1481.90 0.00007
1482.00 0.00007
1482.10 0.00007
1482.20 0.00008
1482.30 0.00008
1482.40 0.00009
1482.50 0.00009
1482.60 0.00010
1482.70 0.00010
1482.80 0.00010
1482.90 0.00011
1483.00 0.00011
1483.10 0.00012
1483.20 0.00012
1483.30 0.00013
1483.40 0.00013
1483.50 0.00013
1483.60 0.00014
1483.70 0.00014
1483.80 0.00015
1483.90 0.00015
1484.00 0.00016
1484.10 0.00016
1484.20 0.00017
1484.30 0.00017
1484.40 0.00018
1484.50 0.00018
1484.60 0.00018
1484.70 0.00019
1484.80 0.00019
1484.90 0.00020
1485.00 0.00020
1485.10 0.00021
1485.20 0.00021
1485.30 0.00022
1485.40 0.00022
1485.50 0.00023
1485.60 0.00023
1485.70 0.00024
1485.80 0.00024
1485.90 0.00025
1486.00 0.00025
1486.10 0.00026
1486.20 0.00027
1486.30 0.00027
1486.40 0.00028
1486.50 0.00028
1486.60 0.00029
1486.70 0.00029
1486.80 0.00030
1486.90 0.00030
1487.00 0.00031
1487.10 0.00031
1487.20 0.00032
1487.30 0.00032
1487.40 0.00033
1487.50 0.00033
1487.60 0.00034
1487.70 0.00035
1487.80 0.00035
1487.90 0.00036
1488.00 0.00036
1488.10 0.00037
1488.20 0.00037
1488.30 0.00038
1488.40 0.00038
1488.50 0.00039
1488.60 0.00039
1488.70 0.00040
1488.80 0.00041
1488.90 0.00041
1489.00 0.00042
1489.10 0.00042
1489.20 0.00043
1489.30 0.00043
1489.40 0.00044
1489.50 0.00045
1489.60 0.00045
1489.70 0.00046
1489.80 0.00046
1489.90 0.00047
1490.00 0.00047
1490.10 0.00048
1490.20 0.00049
1490.30 0.00049
1490.40 0.00050
1490.50 0.00050
1490.60 0.00051
1490.70 0.00051
1490.80 0.00052
1490.90 0.00053
1491.00 0.00053
1491.10 0.00054
1491.20 0.00054
1491.30 0.00055
1491.40 0.00055
1491.50 0.00056
1491.60 0.00057
1491.70 0.00057
1491.80 0.00058
1491.90 0.00058
1492.00 0.00059
1492.10 0.00059
1492.20 0.00060
1492.30 0.00061
1492.40 0.00061
1492.50 0.00062
1492.60 0.00062
1492.70 0.00063
1492.80 0.00063
1492.90 0.00064
1493.00 0.00065
1493.10 0.00065
1493.20 0.00066
1493.30 0.00066
1493.40 0.00067
1493.50 0.00067
1493.60 0.00068
1493.70 0.00069
1493.80 0.00069
1493.90 0.00070
1494.00 0.00070
1494.10 0.00071
1494.20 0.00071
1494.30 0.00072
1494.40 0.00073
1494.50 0.00073
1494.60 0.00074
1494.70 0.00074
1494.80 0.00075
1494.90 0.00075
1495.00 0.00076
1495.10 0.00076
1495.20 0.00077
1495.30 0.00078
1495.40 0.00078
1495.50 0.00079
1495.60 0.00079
1495.70 0.00080
1495.80 0.00080
1495.90 0.00081
1496.00 0.00081
1496.10 0.00082
1496.20 0.00082
1496.30 0.00083
1496.40 0.00084
1496.50 0.00084
1496.60 0.00085
1496.70 0.00085
1496.80 0.00086
1496.90 0.00086
1497.00 0.00087
1497.10 0.00087
1497.20 0.00088
1497.30 0.00088
1497.40 0.00089
1497.50 0.00089
1497.60 0.00090
1497.70 0.00090
1497.80 0.00091
1497.90 0.00091
1498.00 0.00092
1498.10 0.00092
1498.20 0.00093
1498.30 0.00093
1498.40 0.00094
1498.50 0.00094
1498.60 0.00095
1498.70 0.00095
1498.80 0.00096
1498.90 0.00096
1499.00 0.00097
1499.10 0.00097
1499.20 0.00098
1499.30 0.00098
1499.40 0.00098
1499.50 0.00099
1499.60 0.00099
1499.70 0.00100
1499.80 0.00100
1499.90 0.00101
1500.00 0.00101
1500.10 0.00101
1500.20 0.00102
1500.30 0.00102
1500.40 0.00103
1500.50 0.00103
1500.60 0.00103
1500.70 0.00104
1500.80 0.00104
1500.90 0.00104
1501.00 0.00105
1501.10 0.00105
1501.20 0.00105
1501.30 0.00106
1501.40 0.00106
1501.50 0.00106
1501.60 0.00107
1501.70 0.00107
1501.80 0.00107
1501.90 0.00108
1502.00 0.00108
1502.10 0.00108
1502.20 0.00109
1502.30 0.00109
1502.40 0.00109
1502.50 0.00110
1502.60 0.00110
1502.70 0.00110
1502.80 0.00111
1502.90 0.00111
1503.00 0.00111
1503.10 0.00112
1503.20 0.00112
1503.30 0.00112
1503.40 0.00113
1503.50 0.00113
1503.60 0.00113
1503.70 0.00114
1503.80 0.00114
1503.90 0.00114
1504.00 0.00114
1504.10 0.00115
1504.20 0.00115
1504.30 0.00115
1504.40 0.00116
1504.50 0.00116
1504.60 0.00116
1504.70 0.00117
1504.80 0.00117
1504.90 0.00117
1505.00 0.00117
1505.10 0.00118
1505.20 0.00118
1505.30 0.00118
1505.40 0.00119
1505.50 0.00119
1505.60 0.00119
1505.70 0.00119
1505.80 0.00120
1505.90 0.00120
1506.00 0.00120
1506.10 0.00120
1506.20 0.00121
1506.30 0.00121
1506.40 0.00121
1506.50 0.00121
1506.60 0.00122
1506.70 0.00122
1506.80 0.00122
1506.90 0.00122
1507.00 0.00123
1507.10 0.00123
1507.20 0.00123
1507.30 0.00123
1507.40 0.00124
1507.50 0.00124
1507.60 0.00124
1507.70 0.00124
1507.80 0.00125
1507.90 0.00125
1508.00 0.00125
1508.10 0.00125
1508.20 0.00126
1508.30 0.00126
1508.40 0.00126
1508.50 0.00126
1508.60 0.00127
1508.70 0.00127
1508.80 0.00127
1508.90 0.00127
1509.00 0.00127
1509.10 0.00128
1509.20 0.00128
1509.30 0.00128
1509.40 0.00128
1509.50 0.00129
1509.60 0.00129
1509.70 0.00129
1509.80 0.00129
1509.90 0.00129
1510.00 0.00130
1510.10 0.00130
1510.20 0.00130
1510.30 0.00130
1510.40 0.00130
1510.50 0.00131
1510.60 0.00131
1510.70 0.00131
1510.80 0.00131
1510.90 0.00132
1511.00 0.00132
1511.10 0.00132
1511.20 0.00132
1511.30 0.00132
1511.40 0.00132
1511.50 0.00133
1511.60 0.00133
1511.70 0.00133
1511.80 0.00133
1511.90 0.00133
1512.00 0.00134
1512.10 0.00134
1512.20 0.00134
1512.30 0.00134
1512.40 0.00134
1512.50 0.00135
1512.60 0.00135
1512.70 0.00135
1512.80 0.00135
1512.90 0.00135
1513.00 0.00135
1513.10 0.00136
1513.20 0.00136
1513.30 0.00136
1513.40 0.00136
1513.50 0.00136
1513.60 0.00136
1513.70 0.00137
1513.80 0.00137
1513.90 0.00137
1514.00 0.00137
1514.10 0.00137
1514.20 0.00137
1514.30 0.00138
1514.40 0.00138
1514.50 0.00138
1514.60 0.00138
1514.70 0.00138
1514.80 0.00138
1514.90 0.00139
1515.00 0.00139
1515.10 0.00139
1515.20 0.00139
1515.30 0.00139
1515.40 0.00139
1515.50 0.00140
1515.60 0.00140
1515.70 0.00140
1515.80 0.00140
1515.90 0.00140
1516.00 0.00140
1516.10 0.00140
1516.20 0.00141
1516.30 0.00141
1516.40 0.00141
1516.50 0.00141
1516.60 0.00141
1516.70 0.00141
1516.80 0.00141
1516.90 0.00142
1517.00 0.00142
1517.10 0.00142
1517.20 0.00142
1517.30 0.00142
1517.40 0.00142
1517.50 0.00142
1517.60 0.00143
1517.70 0.00143
1517.80 0.00143
1517.90 0.00143
1518.00 0.00143
1518.10 0.00143
1518.20 0.00143
1518.30 0.00143
1518.40 0.00144
1518.50 0.00144
1518.60 0.00144
1518.70 0.00144
1518.80 0.00144
1518.90 0.00144
1519.00 0.00144
1519.10 0.00144
1519.20 0.00145
1519.30 0.00145
1519.40 0.00145
1519.50 0.00145
1519.60 0.00145
1519.70 0.00145
1519.80 0.00145
1519.90 0.00145
1520.00 0.00146
1520.10 0.00146
1520.20 0.00146
1520.30 0.00146
1520.40 0.00146
1520.50 0.00146
1520.60 0.00146
1520.70 0.00146
1520.80 0.00146
1520.90 0.00146
1521.00 0.00146
1521.10 0.00146
1521.20 0.00146
1521.30 0.00146
1521.40 0.00146
1521.50 0.00146
1521.60 0.00146
1521.70 0.00146
1521.80 0.00146
1521.90 0.00146
1522.00 0.00146
1522.10 0.00146
1522.20 0.00146
1522.30 0.00146
1522.40 0.00146
1522.50 0.00146
1522.60 0.00146
1522.70 0.00146
1522.80 0.00146
1522.90 0.00146
1523.00 0.00146
1523.10 0.00146
1523.20 0.00146
1523.30 0.00146
1523.40 0.00146
1523.50 0.00146
1523.60 0.00146
1523.70 0.00146
1523.80 0.00146
1523.90 0.00145
1524.00 0.00145
1524.10 0.00145
1524.20 0.00145
1524.30 0.00145
1524.40 0.00145
1524.50 0.00145
1524.60 0.00145
1524.70 0.00145
1524.80 0.00145
1524.90 0.00145
1525.00 0.00145
1525.10 0.00145
1525.20 0.00145
1525.30 0.00145
1525.40 0.00145
1525.50 0.00145
1525.60 0.00145
1525.70 0.00145
1525.80 0.00145
1525.90 0.00145
1526.00 0.00145
1526.10 0.00145
1526.20 0.00145
1526.30 0.00145
1526.40 0.00145
1526.50 0.00145
1526.60 0.00144
1526.70 0.00144
1526.80 0.00144
1526.90 0.00144
1527.00 0.00144
1527.10 0.00144
1527.20 0.00144
1527.30 0.00144
1527.40 0.00144
1527.50 0.00144
1527.60 0.00144
1527.70 0.00144
1527.80 0.00144
1527.90 0.00144
1528.00 0.00144
1528.10 0.00144
1528.20 0.00144
1528.30 0.00144
1528.40 0.00144
1528.50 0.00144
1528.60 0.00144
1528.70 0.00144
1528.80 0.00144
1528.90 0.00144
1529.00 0.00144
1529.10 0.00144
1529.20 0.00144
1529.30 0.00144
1529.40 0.00144
1529.50 0.00144
1529.60 0.00144
1529.70 0.00144
1529.80 0.00144
1529.90 0.00144
1530.00 0.00144
1530.10 0.00144
1530.20 0.00144
1530.30 0.00144
1530.40 0.00144
1530.50 0.00144
1530.60 0.00144
1530.70 0.00144
1530.80 0.00144
1530.90 0.00144
1531.00 0.00144
1531.10 0.00144
1531.20 0.00144
1531.30 0.00144
1531.40 0.00144
1531.50 0.00144
1531.60 0.00144
1531.70 0.00144
1531.80 0.00144
1531.90 0.00144
1532.00 0.00144
1532.10 0.00144
1532.20 0.00144
1532.30 0.00144
1532.40 0.00144
1532.50 0.00145
1532.60 0.00145
1532.70 0.00145
1532.80 0.00145
1532.90 0.00145
1533.00 0.00145
1533.10 0.00145
1533.20 0.00145
1533.30 0.00145
1533.40 0.00145
1533.50 0.00145
1533.60 0.00145
1533.70 0.00146
1533.80 0.00146
1533.90 0.00146
1534.00 0.00146
1534.10 0.00146
1534.20 0.00146
1534.30 0.00146
1534.40 0.00146
1534.50 0.00147
1534.60 0.00147
1534.70 0.00147
1534.80 0.00147
1534.90 0.00147
1535.00 0.00147
1535.10 0.00147
1535.20 0.00148
1535.30 0.00148
1535.40 0.00148
1535.50 0.00148
1535.60 0.00148
1535.70 0.00149
1535.80 0.00149
1535.90 0.00149
1536.00 0.00149
1536.10 0.00149
1536.20 0.00150
1536.30 0.00150
1536.40 0.00150
1536.50 0.00150
1536.60 0.00150
1536.70 0.00151
1536.80 0.00151
1536.90 0.00151
1537.00 0.00151
1537.10 0.00152
1537.20 0.00152
1537.30 0.00152
1537.40 0.00152
1537.50 0.00153
1537.60 0.00153
1537.70 0.00153
1537.80 0.00154
1537.90 0.00154
1538.00 0.00154
1538.10 0.00155
1538.20 0.00155
1538.30 0.00155
1538.40 0.00155
1538.50 0.00156
1538.60 0.00156
1538.70 0.00157
1538.80 0.00157
1538.90 0.00157
1539.00 0.00158
1539.10 0.00158
1539.20 0.00158
1539.30 0.00159
1539.40 0.00159
1539.50 0.00159
1539.60 0.00160
1539.70 0.00160
1539.80 0.00161
1539.90 0.00161
1540.00 0.00162
1540.10 0.00162
1540.20 0.00163
1540.30 0.00163
1540.40 0.00164
1540.50 0.00164
1540.60 0.00165
1540.70 0.00166
1540.80 0.00166
1540.90 0.00167
1541.00 0.00167
1541.10 0.00168
1541.20 0.00169
1541.30 0.00169
1541.40 0.00170
1541.50 0.00170
1541.60 0.00171
1541.70 0.00172
1541.80 0.00172
1541.90 0.00173
1542.00 0.00174
1542.10 0.00174
1542.20 0.00175
1542.30 0.00176
1542.40 0.00176
1542.50 0.00177
1542.60 0.00178
1542.70 0.00178
1542.80 0.00179
1542.90 0.00180
1543.00 0.00181
1543.10 0.00181
1543.20 0.00182
1543.30 0.00183
1543.40 0.00184
1543.50 0.00184
1543.60 0.00185
1543.70 0.00186
1543.80 0.00187
1543.90 0.00187
1544.00 0.00188
1544.10 0.00189
1544.20 0.00190
1544.30 0.00190
1544.40 0.00191
1544.50 0.00192
1544.60 0.00193
1544.70 0.00194
1544.80 0.00194
1544.90 0.00195
1545.00 0.00196
1545.10 0.00197
1545.20 0.00198
1545.30 0.00198
1545.40 0.00199
1545.50 0.00200
1545.60 0.00201
1545.70 0.00202
1545.80 0.00203
1545.90 0.00203
1546.00 0.00204
1546.10 0.00205
1546.20 0.00206
1546.30 0.00207
1546.40 0.00208
1546.50 0.00209
1546.60 0.00209
1546.70 0.00210
1546.80 0.00211
1546.90 0.00212
1547.00 0.00213
1547.10 0.00214
1547.20 0.00215
1547.30 0.00216
1547.40 0.00217
1547.50 0.00217
1547.60 0.00218
1547.70 0.00219
1547.80 0.00220
1547.90 0.00221
1548.00 0.00222
1548.10 0.00223
1548.20 0.00224
1548.30 0.00225
1548.40 0.00226
1548.50 0.00227
1548.60 0.00227
1548.70 0.00228
1548.80 0.00229
1548.90 0.00230
1549.00 0.00231
1549.10 0.00232
1549.20 0.00233
1549.30 0.00234
1549.40 0.00235
1549.50 0.00236
1549.60 0.00237
1549.70 0.00238
1549.80 0.00239
1549.90 0.00240
1550.00 0.00241
1550.10 0.00242
1550.20 0.00242
1550.30 0.00243
1550.40 0.00244
1550.50 0.00245
1550.60 0.00246
1550.70 0.00247
1550.80 0.00248
1550.90 0.00249
1551.00 0.00250
1551.10 0.00251
1551.20 0.00252
1551.30 0.00253
1551.40 0.00254
1551.50 0.00255
1551.60 0.00256
1551.70 0.00257
1551.80 0.00258
1551.90 0.00259
1552.00 0.00260
1552.10 0.00261
1552.20 0.00262
1552.30 0.00263
1552.40 0.00264
1552.50 0.00265
1552.60 0.00266
1552.70 0.00267
1552.80 0.00268
1552.90 0.00268
1553.00 0.00269
1553.10 0.00270
1553.20 0.00271
1553.30 0.00272
1553.40 0.00273
1553.50 0.00274
1553.60 0.00275
1553.70 0.00276
1553.80 0.00277
1553.90 0.00278
1554.00 0.00279
1554.10 0.00280
1554.20 0.00281
1554.30 0.00282
1554.40 0.00283
1554.50 0.00284
1554.60 0.00285
1554.70 0.00286
1554.80 0.00287
1554.90 0.00288
1555.00 0.00289
1555.10 0.00290
1555.20 0.00291
1555.30 0.00292
1555.40 0.00292
1555.50 0.00293
1555.60 0.00294
1555.70 0.00295
1555.80 0.00296
1555.90 0.00297
1556.00 0.00298
1556.10 0.00299
1556.20 0.00300
1556.30 0.00301
1556.40 0.00302
1556.50 0.00303
1556.60 0.00304
1556.70 0.00305
1556.80 0.00306
1556.90 0.00306
1557.00 0.00307
1557.10 0.00308
1557.20 0.00309
1557.30 0.00310
1557.40 0.00311
1557.50 0.00312
1557.60 0.00313
1557.70 0.00314
1557.80 0.00315
1557.90 0.00315
1558.00 0.00316
1558.10 0.00317
1558.20 0.00318
1558.30 0.00319
1558.40 0.00320
1558.50 0.00321
1558.60 0.00322
1558.70 0.00322
1558.80 0.00323
1558.90 0.00324
1559.00 0.00325
1559.10 0.00326
1559.20 0.00327
1559.30 0.00328
1559.40 0.00328
1559.50 0.00329
1559.60 0.00330
1559.70 0.00331
1559.80 0.00332
1559.90 0.00333
1560.00 0.00333
1560.10 0.00334
1560.20 0.00335
1560.30 0.00335
1560.40 0.00336
1560.50 0.00337
1560.60 0.00337
1560.70 0.00338
1560.80 0.00339
1560.90 0.00339
1561.00 0.00340
1561.10 0.00341
1561.20 0.00341
1561.30 0.00342
1561.40 0.00342
1561.50 0.00343
1561.60 0.00344
1561.70 0.00344
1561.80 0.00345
1561.90 0.00346
1562.00 0.00346
1562.10 0.00347
1562.20 0.00347
1562.30 0.00348
1562.40 0.00349
1562.50 0.00349
1562.60 0.00350
1562.70 0.00350
1562.80 0.00351
1562.90 0.00352
1563.00 0.00352
1563.10 0.00353
1563.20 0.00353
1563.30 0.00354
1563.40 0.00355
1563.50 0.00355
1563.60 0.00356
1563.70 0.00356
1563.80 0.00357
1563.90 0.00357
1564.00 0.00358
1564.10 0.00359
1564.20 0.00359
1564.30 0.00360
1564.40 0.00360
1564.50 0.00361
1564.60 0.00361
1564.70 0.00362
1564.80 0.00363
1564.90 0.00363
1565.00 0.00364
1565.10 0.00364
1565.20 0.00365
1565.30 0.00365
1565.40 0.00366
1565.50 0.00366
1565.60 0.00367
1565.70 0.00367
1565.80 0.00368
1565.90 0.00369
1566.00 0.00369
1566.10 0.00370
1566.20 0.00370
1566.30 0.00371
1566.40 0.00371
1566.50 0.00372
1566.60 0.00372
1566.70 0.00373
1566.80 0.00373
1566.90 0.00374
1567.00 0.00374
1567.10 0.00375
1567.20 0.00376
1567.30 0.00376
1567.40 0.00377
1567.50 0.00377
1567.60 0.00378
1567.70 0.00378
1567.80 0.00379
1567.90 0.00379
1568.00 0.00380
1568.10 0.00380
1568.20 0.00381
1568.30 0.00381
1568.40 0.00382
1568.50 0.00382
1568.60 0.00383
1568.70 0.00383
1568.80 0.00384
1568.90 0.00384
1569.00 0.00385
1569.10 0.00385
1569.20 0.00386
1569.30 0.00386
1569.40 0.00387
1569.50 0.00387
1569.60 0.00388
1569.70 0.00388
1569.80 0.00389
1569.90 0.00389
1570.00 0.00390
1570.10 0.00391
1570.20 0.00391
1570.30 0.00392
1570.40 0.00392
1570.50 0.00393
1570.60 0.00393
1570.70 0.00394
1570.80 0.00394
1570.90 0.00395
1571.00 0.00395
1571.10 0.00396
1571.20 0.00396
1571.30 0.00397
1571.40 0.00397
1571.50 0.00398
1571.60 0.00398
1571.70 0.00399
1571.80 0.00399
1571.90 0.00400
1572.00 0.00400
1572.10 0.00401
1572.20 0.00401
1572.30 0.00402
1572.40 0.00402
1572.50 0.00403
1572.60 0.00403
1572.70 0.00404
1572.80 0.00404
1572.90 0.00405
1573.00 0.00405
1573.10 0.00406
1573.20 0.00406
1573.30 0.00407
1573.40 0.00407
1573.50 0.00408
1573.60 0.00408
1573.70 0.00409
1573.80 0.00410
1573.90 0.00410
1574.00 0.00411
1574.10 0.00411
1574.20 0.00412
1574.30 0.00412
1574.40 0.00413
1574.50 0.00413
1574.60 0.00414
1574.70 0.00414
1574.80 0.00415
1574.90 0.00415
1575.00 0.00416
1575.10 0.00416
1575.20 0.00417
1575.30 0.00417
1575.40 0.00418
1575.50 0.00418
1575.60 0.00419
1575.70 0.00420
1575.80 0.00420
1575.90 0.00421
1576.00 0.00421
1576.10 0.00422
1576.20 0.00422
1576.30 0.00423
1576.40 0.00423
1576.50 0.00424
1576.60 0.00424
1576.70 0.00425
1576.80 0.00426
1576.90 0.00426
1577.00 0.00427
1577.10 0.00427
1577.20 0.00428
1577.30 0.00428
1577.40 0.00429
1577.50 0.00430
1577.60 0.00430
1577.70 0.00431
1577.80 0.00431
1577.90 0.00432
1578.00 0.00432
1578.10 0.00433
1578.20 0.00434
1578.30 0.00434
1578.40 0.00435
1578.50 0.00435
1578.60 0.00436
1578.70 0.00436
1578.80 0.00437
1578.90 0.00438
1579.00 0.00438
1579.10 0.00439
1579.20 0.00439
1579.30 0.00440
1579.40 0.00441
1579.50 0.00441
1579.60 0.00442
1579.70 0.00442
1579.80 0.00443
1579.90 0.00444
1580.00 0.00444
1580.10 0.00445
1580.20 0.00446
1580.30 0.00446
1580.40 0.00447
1580.50 0.00448
1580.60 0.00448
1580.70 0.00449
1580.80 0.00450
1580.90 0.00450
1581.00 0.00451
1581.10 0.00452
1581.20 0.00452
1581.30 0.00453
1581.40 0.00454
1581.50 0.00454
1581.60 0.00455
1581.70 0.00456
1581.80 0.00456
1581.90 0.00457
1582.00 0.00458
1582.10 0.00458
1582.20 0.00459
1582.30 0.00460
1582.40 0.00460
1582.50 0.00461
1582.60 0.00462
1582.70 0.00463
1582.80 0.00463
1582.90 0.00464
1583.00 0.00465
1583.10 0.00465
1583.20 0.00466
1583.30 0.00467
1583.40 0.00467
1583.50 0.00468
1583.60 0.00469
1583.70 0.00469
1583.80 0.00470
1583.90 0.00471
1584.00 0.00472
1584.10 0.00472
1584.20 0.00473
1584.30 0.00474
1584.40 0.00474
1584.50 0.00475
1584.60 0.00476
1584.70 0.00477
1584.80 0.00477
1584.90 0.00478
1585.00 0.00479
1585.10 0.00480
1585.20 0.00480
1585.30 0.00481
1585.40 0.00482
1585.50 0.00482
1585.60 0.00483
1585.70 0.00484
1585.80 0.00485
1585.90 0.00485
1586.00 0.00486
1586.10 0.00487
1586.20 0.00488
1586.30 0.00488
1586.40 0.00489
1586.50 0.00490
1586.60 0.00491
1586.70 0.00491
1586.80 0.00492
1586.90 0.00493
1587.00 0.00493
1587.10 0.00494
1587.20 0.00495
1587.30 0.00496
1587.40 0.00496
1587.50 0.00497
1587.60 0.00498
1587.70 0.00499
1587.80 0.00499
1587.90 0.00500
1588.00 0.00501
1588.10 0.00502
1588.20 0.00503
1588.30 0.00503
1588.40 0.00504
1588.50 0.00505
1588.60 0.00506
1588.70 0.00506
1588.80 0.00507
1588.90 0.00508
1589.00 0.00509
1589.10 0.00509
1589.20 0.00510
1589.30 0.00511
1589.40 0.00512
1589.50 0.00512
1589.60 0.00513
1589.70 0.00514
1589.80 0.00515
1589.90 0.00516
1590.00 0.00516
1590.10 0.00517
1590.20 0.00518
1590.30 0.00519
1590.40 0.00519
1590.50 0.00520
1590.60 0.00521
1590.70 0.00522
1590.80 0.00523
1590.90 0.00523
1591.00 0.00524
1591.10 0.00525
1591.20 0.00526
1591.30 0.00527
1591.40 0.00527
1591.50 0.00528
1591.60 0.00529
1591.70 0.00530
1591.80 0.00531
1591.90 0.00531
1592.00 0.00532
1592.10 0.00533
1592.20 0.00534
1592.30 0.00535
1592.40 0.00535
1592.50 0.00536
1592.60 0.00537
1592.70 0.00538
1592.80 0.00539
1592.90 0.00539
1593.00 0.00540
1593.10 0.00541
1593.20 0.00542
1593.30 0.00543
1593.40 0.00543
1593.50 0.00544
1593.60 0.00545
1593.70 0.00546
1593.80 0.00547
1593.90 0.00547
1594.00 0.00548
1594.10 0.00549
1594.20 0.00550
1594.30 0.00551
1594.40 0.00552
1594.50 0.00552
1594.60 0.00553
1594.70 0.00554
1594.80 0.00555
1594.90 0.00556
1595.00 0.00556
1595.10 0.00557
1595.20 0.00558
1595.30 0.00559
1595.40 0.00560
1595.50 0.00561
1595.60 0.00561
1595.70 0.00562
1595.80 0.00563
1595.90 0.00564
1596.00 0.00565
1596.10 0.00566
1596.20 0.00566
1596.30 0.00567
1596.40 0.00568
1596.50 0.00569
1596.60 0.00570
1596.70 0.00570
1596.80 0.00571
1596.90 0.00572
1597.00 0.00573
1597.10 0.00574
1597.20 0.00575
1597.30 0.00575
1597.40 0.00576
1597.50 0.00577
1597.60 0.00578
1597.70 0.00579
1597.80 0.00580
1597.90 0.00581
1598.00 0.00581
1598.10 0.00582
1598.20 0.00583
1598.30 0.00584
1598.40 0.00585
1598.50 0.00586
1598.60 0.00586
1598.70 0.00587
1598.80 0.00588
1598.90 0.00589
1599.00 0.00590
1599.10 0.00591
1599.20 0.00591
1599.30 0.00592
1599.40 0.00593
1599.50 0.00594
1599.60 0.00595
1599.70 0.00596
1599.80 0.00597
1599.90 0.00597
1600.00 0.00598
1600.10 0.00599
1600.20 0.00600
1600.30 0.00601
1600.40 0.00602
1600.50 0.00603
1600.60 0.00604
1600.70 0.00605
1600.80 0.00606
1600.90 0.00607
1601.00 0.00608
1601.10 0.00609
1601.20 0.00609
1601.30 0.00610
1601.40 0.00611
1601.50 0.00612
1601.60 0.00613
1601.70 0.00614
1601.80 0.00615
1601.90 0.00616
1602.00 0.00617
1602.10 0.00618
1602.20 0.00619
1602.30 0.00620
1602.40 0.00621
1602.50 0.00622
1602.60 0.00623
1602.70 0.00624
1602.80 0.00625
1602.90 0.00626
1603.00 0.00627
1603.10 0.00628
1603.20 0.00629
1603.30 0.00630
1603.40 0.00631
1603.50 0.00632
1603.60 0.00633
1603.70 0.00633
1603.80 0.00634
1603.90 0.00635
1604.00 0.00636
1604.10 0.00637
1604.20 0.00638
1604.30 0.00639
1604.40 0.00640
1604.50 0.00641
1604.60 0.00642
1604.70 0.00643
1604.80 0.00644
1604.90 0.00645
1605.00 0.00646
1605.10 0.00647
1605.20 0.00648
1605.30 0.00649
1605.40 0.00650
1605.50 0.00651
1605.60 0.00652
1605.70 0.00653
1605.80 0.00654
1605.90 0.00655
1606.00 0.00656
1606.10 0.00657
1606.20 0.00658
1606.30 0.00659
1606.40 0.00660
1606.50 0.00661
1606.60 0.00662
1606.70 0.00663
1606.80 0.00664
1606.90 0.00665
1607.00 0.00666
1607.10 0.00667
1607.20 0.00668
1607.30 0.00669
1607.40 0.00670
1607.50 0.00671
1607.60 0.00672
1607.70 0.00673
1607.80 0.00674
1607.90 0.00675
1608.00 0.00676
1608.10 0.00677
1608.20 0.00678
1608.30 0.00678
1608.40 0.00679
1608.50 0.00680
1608.60 0.00681
1608.70 0.00682
1608.80 0.00683
1608.90 0.00684
1609.00 0.00685
1609.10 0.00686
1609.20 0.00687
1609.30 0.00688
1609.40 0.00689
1609.50 0.00690
1609.60 0.00691
1609.70 0.00692
1609.80 0.00693
1609.90 0.00694
1610.00 0.00695
1610.10 0.00696
1610.20 0.00697
1610.30 0.00698
1610.40 0.00699
1610.50 0.00699
1610.60 0.00700
1610.70 0.00701
1610.80 0.00702
1610.90 0.00703
1611.00 0.00704
1611.10 0.00705
1611.20 0.00706
1611.30 0.00707
1611.40 0.00708
1611.50 0.00709
1611.60 0.00710
1611.70 0.00711
1611.80 0.00711
1611.90 0.00712
1612.00 0.00713
1612.10 0.00714
1612.20 0.00715
1612.30 0.00716
1612.40 0.00717
1612.50 0.00718
1612.60 0.00719
1612.70 0.00719
1612.80 0.00720
1612.90 0.00721
1613.00 0.00722
1613.10 0.00723
1613.20 0.00724
1613.30 0.00725
1613.40 0.00726
1613.50 0.00726
1613.60 0.00727
1613.70 0.00728
1613.80 0.00729
1613.90 0.00730
1614.00 0.00731
1614.10 0.00732
1614.20 0.00732
1614.30 0.00733
1614.40 0.00734
1614.50 0.00735
1614.60 0.00736
1614.70 0.00736
1614.80 0.00737
1614.90 0.00738
1615.00 0.00739
1615.10 0.00740
1615.20 0.00741
1615.30 0.00741
1615.40 0.00742
1615.50 0.00743
1615.60 0.00744
1615.70 0.00744
1615.80 0.00745
1615.90 0.00746
1616.00 0.00747
1616.10 0.00748
1616.20 0.00748
1616.30 0.00749
1616.40 0.00750
1616.50 0.00751
1616.60 0.00751
1616.70 0.00752
1616.80 0.00753
1616.90 0.00754
1617.00 0.00754
1617.10 0.00755
1617.20 0.00756
1617.30 0.00756
1617.40 0.00757
1617.50 0.00758
1617.60 0.00759
1617.70 0.00759
1617.80 0.00760
1617.90 0.00761
1618.00 0.00761
1618.10 0.00762
1618.20 0.00763
1618.30 0.00763
1618.40 0.00764
1618.50 0.00765
1618.60 0.00765
1618.70 0.00766
1618.80 0.00767
1618.90 0.00767
1619.00 0.00768
1619.10 0.00768
1619.20 0.00769
1619.30 0.00770
1619.40 0.00770
1619.50 0.00771
1619.60 0.00772
1619.70 0.00772
1619.80 0.00773
1619.90 0.00773
1620.00 0.00774
1620.10 0.00775
1620.20 0.00776
1620.30 0.00776
1620.40 0.00777
1620.50 0.00778
1620.60 0.00779
1620.70 0.00780
1620.80 0.00781
1620.90 0.00781
1621.00 0.00782
1621.10 0.00783
1621.20 0.00784
1621.30 0.00785
1621.40 0.00786
1621.50 0.00786
1621.60 0.00787
1621.70 0.00788
1621.80 0.00789
1621.90 0.00790
1622.00 0.00791
1622.10 0.00791
1622.20 0.00792
1622.30 0.00793
1622.40 0.00794
1622.50 0.00795
1622.60 0.00795
1622.70 0.00796
1622.80 0.00797
1622.90 0.00798
1623.00 0.00799
1623.10 0.00799
1623.20 0.00800
1623.30 0.00801
1623.40 0.00802
1623.50 0.00803
1623.60 0.00803
1623.70 0.00804
1623.80 0.00805
1623.90 0.00806
1624.00 0.00806
1624.10 0.00807
1624.20 0.00808
1624.30 0.00809
1624.40 0.00809
1624.50 0.00810
1624.60 0.00811
1624.70 0.00812
1624.80 0.00812
1624.90 0.00813
1625.00 0.00814
1625.10 0.00815
1625.20 0.00815
1625.30 0.00816
1625.40 0.00817
1625.50 0.00817
1625.60 0.00818
1625.70 0.00819
1625.80 0.00819
1625.90 0.00820
1626.00 0.00821
1626.10 0.00821
1626.20 0.00822
1626.30 0.00823
1626.40 0.00823
1626.50 0.00824
1626.60 0.00824
1626.70 0.00825
1626.80 0.00826
1626.90 0.00826
1627.00 0.00827
1627.10 0.00828
1627.20 0.00828
1627.30 0.00829
1627.40 0.00829
1627.50 0.00830
1627.60 0.00830
1627.70 0.00831
1627.80 0.00831
1627.90 0.00832
1628.00 0.00833
1628.10 0.00833
1628.20 0.00834
1628.30 0.00834
1628.40 0.00835
1628.50 0.00835
1628.60 0.00835
1628.70 0.00836
1628.80 0.00836
1628.90 0.00837
1629.00 0.00837
1629.10 0.00838
1629.20 0.00838
1629.30 0.00839
1629.40 0.00839
1629.50 0.00839
1629.60 0.00840
1629.70 0.00840
1629.80 0.00841
1629.90 0.00841
1630.00 0.00841
1630.10 0.00842
1630.20 0.00842
1630.30 0.00842
1630.40 0.00843
1630.50 0.00843
1630.60 0.00843
1630.70 0.00843
1630.80 0.00844
1630.90 0.00844
1631.00 0.00844
1631.10 0.00845
1631.20 0.00845
1631.30 0.00845
1631.40 0.00845
1631.50 0.00845
1631.60 0.00846
1631.70 0.00846
1631.80 0.00846
1631.90 0.00846
1632.00 0.00846
1632.10 0.00846
1632.20 0.00847
1632.30 0.00847
1632.40 0.00847
1632.50 0.00847
1632.60 0.00847
1632.70 0.00847
1632.80 0.00847
1632.90 0.00847
1633.00 0.00847
1633.10 0.00847
1633.20 0.00847
1633.30 0.00847
1633.40 0.00847
1633.50 0.00847
1633.60 0.00847
1633.70 0.00847
1633.80 0.00847
1633.90 0.00847
1634.00 0.00847
1634.10 0.00847
1634.20 0.00846
1634.30 0.00846
1634.40 0.00846
1634.50 0.00846
1634.60 0.00846
1634.70 0.00846
1634.80 0.00845
1634.90 0.00845
1635.00 0.00845
1635.10 0.00845
1635.20 0.00845
1635.30 0.00844
1635.40 0.00844
1635.50 0.00844
1635.60 0.00843
1635.70 0.00843
1635.80 0.00843
1635.90 0.00842
1636.00 0.00842
1636.10 0.00842
1636.20 0.00841
1636.30 0.00841
1636.40 0.00840
1636.50 0.00840
1636.60 0.00839
1636.70 0.00839
1636.80 0.00838
1636.90 0.00838
1637.00 0.00837
1637.10 0.00837
1637.20 0.00836
1637.30 0.00836
1637.40 0.00835
1637.50 0.00834
1637.60 0.00834
1637.70 0.00833
1637.80 0.00833
1637.90 0.00832
1638.00 0.00831
1638.10 0.00831
1638.20 0.00830
1638.30 0.00829
1638.40 0.00828
1638.50 0.00828
1638.60 0.00827
1638.70 0.00826
1638.80 0.00825
1638.90 0.00824
1639.00 0.00823
1639.10 0.00823
1639.20 0.00822
1639.30 0.00821
1639.40 0.00820
1639.50 0.00819
1639.60 0.00818
1639.70 0.00817
1639.80 0.00816
1639.90 0.00815
1640.00 0.00814
1640.10 0.00812
1640.20 0.00810
1640.30 0.00809
1640.40 0.00807
1640.50 0.00805
1640.60 0.00803
1640.70 0.00801
1640.80 0.00799
1640.90 0.00797
1641.00 0.00795
1641.10 0.00793
1641.20 0.00791
1641.30 0.00789
1641.40 0.00787
1641.50 0.00785
1641.60 0.00783
1641.70 0.00781
1641.80 0.00778
1641.90 0.00776
1642.00 0.00774
1642.10 0.00772
1642.20 0.00769
1642.30 0.00767
1642.40 0.00765
1642.50 0.00762
1642.60 0.00760
1642.70 0.00758
1642.80 0.00755
1642.90 0.00753
1643.00 0.00751
1643.10 0.00748
1643.20 0.00746
1643.30 0.00743
1643.40 0.00741
1643.50 0.00738
1643.60 0.00736
1643.70 0.00733
1643.80 0.00731
1643.90 0.00728
1644.00 0.00725
1644.10 0.00723
1644.20 0.00720
1644.30 0.00717
1644.40 0.00715
1644.50 0.00712
1644.60 0.00710
1644.70 0.00707
1644.80 0.00704
1644.90 0.00701
1645.00 0.00699
1645.10 0.00696
1645.20 0.00693
1645.30 0.00690
1645.40 0.00688
1645.50 0.00685
1645.60 0.00682
1645.70 0.00679
1645.80 0.00677
1645.90 0.00674
1646.00 0.00671
1646.10 0.00668
1646.20 0.00665
1646.30 0.00662
1646.40 0.00660
1646.50 0.00657
1646.60 0.00654
1646.70 0.00651
1646.80 0.00648
1646.90 0.00645
1647.00 0.00642
1647.10 0.00640
1647.20 0.00637
1647.30 0.00634
1647.40 0.00631
1647.50 0.00628
1647.60 0.00625
1647.70 0.00622
1647.80 0.00619
1647.90 0.00616
1648.00 0.00614
1648.10 0.00611
1648.20 0.00608
1648.30 0.00605
1648.40 0.00602
1648.50 0.00599
1648.60 0.00596
1648.70 0.00593
1648.80 0.00590
1648.90 0.00588
1649.00 0.00585
1649.10 0.00582
1649.20 0.00579
1649.30 0.00576
1649.40 0.00573
1649.50 0.00570
1649.60 0.00567
1649.70 0.00565
1649.80 0.00562
1649.90 0.00559
1650.00 0.00556
1650.10 0.00553
1650.20 0.00550
1650.30 0.00548
1650.40 0.00545
1650.50 0.00542
1650.60 0.00539
1650.70 0.00536
1650.80 0.00534
1650.90 0.00531
1651.00 0.00528
1651.10 0.00525
1651.20 0.00523
1651.30 0.00520
1651.40 0.00517
1651.50 0.00515
1651.60 0.00512
1651.70 0.00509
1651.80 0.00506
1651.90 0.00504
1652.00 0.00501
1652.10 0.00499
1652.20 0.00496
1652.30 0.00493
1652.40 0.00491
1652.50 0.00488
1652.60 0.00486
1652.70 0.00483
1652.80 0.00481
1652.90 0.00478
1653.00 0.00476
1653.10 0.00473
1653.20 0.00471
1653.30 0.00468
1653.40 0.00466
1653.50 0.00463
1653.60 0.00461
1653.70 0.00459
1653.80 0.00456
1653.90 0.00454
1654.00 0.00452
1654.10 0.00449
1654.20 0.00447
1654.30 0.00445
1654.40 0.00443
1654.50 0.00441
1654.60 0.00438
1654.70 0.00436
1654.80 0.00434
1654.90 0.00432
1655.00 0.00430
1655.10 0.00428
1655.20 0.00426
1655.30 0.00424
1655.40 0.00422
1655.50 0.00420
1655.60 0.00418
1655.70 0.00416
1655.80 0.00414
1655.90 0.00412
1656.00 0.00410
1656.10 0.00409
1656.20 0.00407
1656.30 0.00405
1656.40 0.00403
1656.50 0.00402
1656.60 0.00400
1656.70 0.00398
1656.80 0.00397
1656.90 0.00395
1657.00 0.00394
1657.10 0.00392
1657.20 0.00391
1657.30 0.00389
1657.40 0.00388
1657.50 0.00387
1657.60 0.00385
1657.70 0.00384
1657.80 0.00383
1657.90 0.00381
1658.00 0.00380
1658.10 0.00379
1658.20 0.00378
1658.30 0.00377
1658.40 0.00376
1658.50 0.00375
1658.60 0.00374
1658.70 0.00373
1658.80 0.00372
1658.90 0.00371
1659.00 0.00370
1659.10 0.00369
1659.20 0.00368
1659.30 0.00368
1659.40 0.00367
1659.50 0.00366
1659.60 0.00366
1659.70 0.00365
1659.80 0.00364
1659.90 0.00364
1660.00 0.00364
1660.10 0.00364
1660.20 0.00365
1660.30 0.00367
1660.40 0.00368
1660.50 0.00369
1660.60 0.00370
1660.70 0.00371
1660.80 0.00372
1660.90 0.00374
1661.00 0.00375
1661.10 0.00377
1661.20 0.00378
1661.30 0.00379
1661.40 0.00381
1661.50 0.00383
1661.60 0.00384
1661.70 0.00386
1661.80 0.00387
1661.90 0.00389
1662.00 0.00391
1662.10 0.00393
1662.20 0.00395
1662.30 0.00396
1662.40 0.00398
1662.50 0.00400
1662.60 0.00402
1662.70 0.00404
1662.80 0.00406
1662.90 0.00408
1663.00 0.00410
1663.10 0.00413
1663.20 0.00415
1663.30 0.00417
1663.40 0.00419
1663.50 0.00421
1663.60 0.00424
1663.70 0.00426
1663.80 0.00428
1663.90 0.00431
1664.00 0.00433
1664.10 0.00436
1664.20 0.00438
1664.30 0.00441
1664.40 0.00443
1664.50 0.00446
1664.60 0.00448
1664.70 0.00451
1664.80 0.00453
1664.90 0.00456
1665.00 0.00459
1665.10 0.00461
1665.20 0.00464
1665.30 0.00467
1665.40 0.00469
1665.50 0.00472
1665.60 0.00475
1665.70 0.00478
1665.80 0.00480
1665.90 0.00483
1666.00 0.00486
1666.10 0.00489
1666.20 0.00492
1666.30 0.00495
1666.40 0.00498
1666.50 0.00501
1666.60 0.00503
1666.70 0.00506
1666.80 0.00509
1666.90 0.00512
1667.00 0.00515
1667.10 0.00518
1667.20 0.00521
1667.30 0.00524
1667.40 0.00527
1667.50 0.00530
1667.60 0.00533
1667.70 0.00536
1667.80 0.00540
1667.90 0.00543
1668.00 0.00546
1668.10 0.00549
1668.20 0.00552
1668.30 0.00555
1668.40 0.00558
1668.50 0.00561
1668.60 0.00564
1668.70 0.00567
1668.80 0.00570
1668.90 0.00574
1669.00 0.00577
1669.10 0.00580
1669.20 0.00583
1669.30 0.00586
1669.40 0.00589
1669.50 0.00592
1669.60 0.00595
1669.70 0.00598
1669.80 0.00602
1669.90 0.00605
1670.00 0.00608
1670.10 0.00611
1670.20 0.00614
1670.30 0.00617
1670.40 0.00620
1670.50 0.00623
1670.60 0.00626
1670.70 0.00629
1670.80 0.00632
1670.90 0.00636
1671.00 0.00639
1671.10 0.00642
1671.20 0.00645
1671.30 0.00648
1671.40 0.00651
1671.50 0.00654
1671.60 0.00657
1671.70 0.00660
1671.80 0.00663
1671.90 0.00666
1672.00 0.00668
1672.10 0.00671
1672.20 0.00674
1672.30 0.00677
1672.40 0.00680
1672.50 0.00683
1672.60 0.00686
1672.70 0.00689
1672.80 0.00691
1672.90 0.00694
1673.00 0.00697
1673.10 0.00700
1673.20 0.00702
1673.30 0.00705
1673.40 0.00708
1673.50 0.00711
1673.60 0.00713
1673.70 0.00716
1673.80 0.00718
1673.90 0.00721
1674.00 0.00724
1674.10 0.00726
1674.20 0.00729
1674.30 0.00731
1674.40 0.00734
1674.50 0.00736
1674.60 0.00739
1674.70 0.00741
1674.80 0.00743
1674.90 0.00746
1675.00 0.00748
1675.10 0.00750
1675.20 0.00752
1675.30 0.00755
1675.40 0.00757
1675.50 0.00759
1675.60 0.00761
1675.70 0.00763
1675.80 0.00765
1675.90 0.00767
1676.00 0.00769
1676.10 0.00771
1676.20 0.00773
1676.30 0.00775
1676.40 0.00777
1676.50 0.00779
1676.60 0.00781
1676.70 0.00782
1676.80 0.00784
1676.90 0.00786
1677.00 0.00787
1677.10 0.00789
1677.20 0.00791
1677.30 0.00792
1677.40 0.00794
1677.50 0.00795
1677.60 0.00796
1677.70 0.00798
1677.80 0.00799
1677.90 0.00800
1678.00 0.00802
1678.10 0.00803
1678.20 0.00804
1678.30 0.00805
1678.40 0.00806
1678.50 0.00807
1678.60 0.00808
1678.70 0.00809
1678.80 0.00810
1678.90 0.00811
1679.00 0.00811
1679.10 0.00812
1679.20 0.00813
1679.30 0.00814
1679.40 0.00814
1679.50 0.00815
1679.60 0.00815
1679.70 0.00816
1679.80 0.00816
1679.90 0.00816
1680.00 0.00816
1680.10 0.00817
1680.20 0.00817
1680.30 0.00817
1680.40 0.00817
1680.50 0.00817
1680.60 0.00817
1680.70 0.00817
1680.80 0.00817
1680.90 0.00817
1681.00 0.00816
1681.10 0.00816
1681.20 0.00816
1681.30 0.00815
1681.40 0.00815
1681.50 0.00814
1681.60 0.00814
1681.70 0.00813
1681.80 0.00812
1681.90 0.00812
1682.00 0.00811
1682.10 0.00810
1682.20 0.00809
1682.30 0.00808
1682.40 0.00808
1682.50 0.00807
1682.60 0.00806
1682.70 0.00804
1682.80 0.00803
1682.90 0.00802
1683.00 0.00801
1683.10 0.00800
1683.20 0.00798
1683.30 0.00797
1683.40 0.00796
1683.50 0.00794
1683.60 0.00793
1683.70 0.00791
1683.80 0.00790
1683.90 0.00788
1684.00 0.00786
1684.10 0.00785
1684.20 0.00783
1684.30 0.00781
1684.40 0.00779
1684.50 0.00778
1684.60 0.00776
1684.70 0.00774
1684.80 0.00772
1684.90 0.00770
1685.00 0.00768
1685.10 0.00766
1685.20 0.00763
1685.30 0.00761
1685.40 0.00759
1685.50 0.00757
1685.60 0.00754
1685.70 0.00752
1685.80 0.00750
1685.90 0.00747
1686.00 0.00745
1686.10 0.00742
1686.20 0.00740
1686.30 0.00737
1686.40 0.00735
1686.50 0.00732
1686.60 0.00729
1686.70 0.00727
1686.80 0.00724
1686.90 0.00721
1687.00 0.00718
1687.10 0.00716
1687.20 0.00713
1687.30 0.00710
1687.40 0.00707
1687.50 0.00704
1687.60 0.00701
1687.70 0.00698
1687.80 0.00695
1687.90 0.00692
1688.00 0.00689
1688.10 0.00685
1688.20 0.00682
1688.30 0.00679
1688.40 0.00676
1688.50 0.00672
1688.60 0.00669
1688.70 0.00666
1688.80 0.00662
1688.90 0.00659
1689.00 0.00655
1689.10 0.00652
1689.20 0.00649
1689.30 0.00645
1689.40 0.00641
1689.50 0.00638
1689.60 0.00634
1689.70 0.00631
1689.80 0.00627
1689.90 0.00623
1690.00 0.00620
1690.10 0.00616
1690.20 0.00612
1690.30 0.00608
1690.40 0.00604
1690.50 0.00601
1690.60 0.00597
1690.70 0.00593
1690.80 0.00589
1690.90 0.00585
1691.00 0.00581
1691.10 0.00577
1691.20 0.00573
1691.30 0.00569
1691.40 0.00565
1691.50 0.00561
1691.60 0.00557
1691.70 0.00553
1691.80 0.00549
1691.90 0.00544
1692.00 0.00540
1692.10 0.00536
1692.20 0.00532
1692.30 0.00528
1692.40 0.00523
1692.50 0.00519
1692.60 0.00515
1692.70 0.00510
1692.80 0.00506
1692.90 0.00502
1693.00 0.00497
1693.10 0.00493
1693.20 0.00488
1693.30 0.00484
1693.40 0.00480
1693.50 0.00475
1693.60 0.00471
1693.70 0.00466
1693.80 0.00462
1693.90 0.00457
1694.00 0.00453
1694.10 0.00448
1694.20 0.00443
1694.30 0.00439
1694.40 0.00434
1694.50 0.00430
1694.60 0.00425
1694.70 0.00420
1694.80 0.00416
1694.90 0.00411
1695.00 0.00406
1695.10 0.00402
1695.20 0.00397
1695.30 0.00392
1695.40 0.00387
1695.50 0.00383
1695.60 0.00378
1695.70 0.00373
1695.80 0.00368
1695.90 0.00364
1696.00 0.00359
1696.10 0.00354
1696.20 0.00349
1696.30 0.00344
1696.40 0.00340
1696.50 0.00335
1696.60 0.00330
1696.70 0.00325
1696.80 0.00320
1696.90 0.00315
1697.00 0.00310
1697.10 0.00305
1697.20 0.00300
1697.30 0.00296
1697.40 0.00291
1697.50 0.00286
1697.60 0.00281
1697.70 0.00276
1697.80 0.00271
1697.90 0.00266
1698.00 0.00261
1698.10 0.00256
1698.20 0.00251
1698.30 0.00246
1698.40 0.00241
1698.50 0.00236
1698.60 0.00231
1698.70 0.00226
1698.80 0.00221
1698.90 0.00216
1699.00 0.00211
1699.10 0.00206
1699.20 0.00201
1699.30 0.00196
1699.40 0.00191
1699.50 0.00186
1699.60 0.00181
1699.70 0.00176
1699.80 0.00171
1699.90 0.00166
1700.00 0.00161
