# LSST transmission (instrument+atmosphere)
#   wavelength[nm] Thoughput
676.000000 0.000000
676.100000 0.000938
676.200000 0.001876
676.300000 0.002815
676.400000 0.003754
676.500000 0.004669
676.600000 0.005583
676.700000 0.006522
676.800000 0.007461
676.900000 0.008399
677.000000 0.009338
677.100000 0.010277
677.200000 0.011216
677.300000 0.012130
677.400000 0.013044
677.500000 0.013983
677.600000 0.014925
677.700000 0.015868
677.800000 0.016810
677.900000 0.017754
678.000000 0.018698
678.100000 0.019613
678.200000 0.020528
678.300000 0.021468
678.400000 0.022408
678.500000 0.023348
678.600000 0.024288
678.700000 0.025229
678.800000 0.026169
678.900000 0.027084
679.000000 0.027999
679.100000 0.028939
679.200000 0.029879
679.300000 0.030819
679.400000 0.031759
679.500000 0.032699
679.600000 0.033639
679.700000 0.034554
679.800000 0.035469
679.900000 0.036409
680.000000 0.037348
680.100000 0.038294
680.200000 0.039240
680.300000 0.040186
680.400000 0.041132
680.500000 0.042054
680.600000 0.042967
680.700000 0.043905
680.800000 0.044843
680.900000 0.045780
681.000000 0.046717
681.100000 0.048596
681.200000 0.050475
681.300000 0.052329
681.400000 0.054183
681.500000 0.056062
681.600000 0.057940
681.700000 0.059794
681.800000 0.061647
681.900000 0.063525
682.000000 0.065403
682.100000 0.067254
682.200000 0.069104
682.300000 0.070979
682.400000 0.072853
682.500000 0.074703
682.600000 0.076568
682.700000 0.078458
682.800000 0.080349
682.900000 0.082216
683.000000 0.084083
683.100000 0.085958
683.200000 0.087832
683.300000 0.089682
683.400000 0.091531
683.500000 0.093405
683.600000 0.095278
683.700000 0.097127
683.800000 0.098975
683.900000 0.100848
684.000000 0.102721
684.100000 0.104569
684.200000 0.106417
684.300000 0.108289
684.400000 0.110160
684.500000 0.112007
684.600000 0.113853
684.700000 0.115723
684.800000 0.117593
684.900000 0.119437
685.000000 0.121281
685.100000 0.123150
685.200000 0.125018
685.300000 0.126861
685.400000 0.128703
685.500000 0.130570
685.600000 0.132297
685.700000 0.133995
685.800000 0.135689
685.900000 0.137402
686.000000 0.139112
686.100000 0.139605
686.200000 0.140062
686.300000 0.140459
686.400000 0.140820
686.500000 0.141169
686.600000 0.139326
686.700000 0.137372
686.800000 0.135329
686.900000 0.133219
687.000000 0.131020
687.100000 0.130728
687.200000 0.130394
687.300000 0.130038
687.400000 0.129639
687.500000 0.129179
687.600000 0.132805
687.700000 0.136498
687.800000 0.140240
687.900000 0.144009
688.000000 0.147826
688.100000 0.151304
688.200000 0.154821
688.300000 0.158357
688.400000 0.161932
688.500000 0.165569
688.600000 0.166678
688.700000 0.167754
688.800000 0.168820
688.900000 0.169895
689.000000 0.170960
689.100000 0.172566
689.200000 0.174171
689.300000 0.175798
689.400000 0.177425
689.500000 0.179031
689.600000 0.181462
689.700000 0.183929
689.800000 0.186411
689.900000 0.188887
690.000000 0.191377
690.100000 0.193758
690.200000 0.196152
690.300000 0.198537
690.400000 0.200933
690.500000 0.203365
690.600000 0.205904
690.700000 0.208435
690.800000 0.210979
690.900000 0.213560
691.000000 0.216156
691.100000 0.218532
691.200000 0.220920
691.300000 0.223294
691.400000 0.225678
691.500000 0.228095
691.600000 0.230471
691.700000 0.232833
691.800000 0.235203
691.900000 0.237607
692.000000 0.240020
692.100000 0.242336
692.200000 0.244659
692.300000 0.247014
692.400000 0.249377
692.500000 0.251724
692.600000 0.253968
692.700000 0.256243
692.800000 0.258525
692.900000 0.260789
693.000000 0.263059
693.100000 0.265063
693.200000 0.267069
693.300000 0.269054
693.400000 0.271041
693.500000 0.273055
693.600000 0.274895
693.700000 0.276710
693.800000 0.278526
693.900000 0.280366
694.000000 0.282206
694.100000 0.284057
694.200000 0.285910
694.300000 0.287787
694.400000 0.289664
694.500000 0.291518
694.600000 0.293561
694.700000 0.295631
694.800000 0.297704
694.900000 0.299755
695.000000 0.301809
695.100000 0.303774
695.200000 0.305741
695.300000 0.307684
695.400000 0.309629
695.500000 0.311600
695.600000 0.313440
695.700000 0.315255
695.800000 0.317069
695.900000 0.318908
696.000000 0.320747
696.100000 0.322980
696.200000 0.325217
696.300000 0.327435
696.400000 0.329656
696.500000 0.331907
696.600000 0.334232
696.700000 0.336538
696.800000 0.338848
696.900000 0.341189
697.000000 0.343535
697.100000 0.345446
697.200000 0.347358
697.300000 0.349295
697.400000 0.351233
697.500000 0.353147
697.600000 0.354913
697.700000 0.356703
697.800000 0.358492
697.900000 0.360256
698.000000 0.362019
698.100000 0.363630
698.200000 0.365239
698.300000 0.366821
698.400000 0.368400
698.500000 0.370001
698.600000 0.371443
698.700000 0.372856
698.800000 0.374265
698.900000 0.375695
699.000000 0.377121
699.100000 0.378935
699.200000 0.380748
699.300000 0.382586
699.400000 0.384424
699.500000 0.386238
699.600000 0.388215
699.700000 0.390218
699.800000 0.392223
699.900000 0.394205
700.000000 0.396188
700.100000 0.398041
700.200000 0.399894
700.300000 0.401723
700.400000 0.403552
700.500000 0.405405
700.600000 0.407258
700.700000 0.409086
700.800000 0.410915
700.900000 0.412768
701.000000 0.414621
701.100000 0.416462
701.200000 0.418304
701.300000 0.420120
701.400000 0.421937
701.500000 0.423778
701.600000 0.425709
701.700000 0.427396
701.800000 0.429083
701.900000 0.430064
702.000000 0.431044
702.100000 0.431968
702.200000 0.432892
702.300000 0.433816
702.400000 0.434739
702.500000 0.435663
702.600000 0.436771
702.700000 0.437855
702.800000 0.438939
702.900000 0.440049
703.000000 0.441160
703.100000 0.442471
703.200000 0.443784
703.300000 0.445098
703.400000 0.446414
703.500000 0.447707
703.600000 0.448626
703.700000 0.449569
703.800000 0.450512
703.900000 0.451456
704.000000 0.452399
704.100000 0.453316
704.200000 0.454232
704.300000 0.455149
704.400000 0.456065
704.500000 0.456957
704.600000 0.457848
704.700000 0.458764
704.800000 0.459680
704.900000 0.460596
705.000000 0.461512
705.100000 0.462431
705.200000 0.463349
705.300000 0.463555
705.400000 0.463761
705.500000 0.463746
705.600000 0.463828
705.700000 0.463910
705.800000 0.463992
705.900000 0.464074
706.000000 0.464156
706.100000 0.464242
706.200000 0.464327
706.300000 0.464413
706.400000 0.464499
706.500000 0.464585
706.600000 0.464671
706.700000 0.464757
706.800000 0.464843
706.900000 0.464929
707.000000 0.465015
707.100000 0.464992
707.200000 0.464970
707.300000 0.464948
707.400000 0.464926
707.500000 0.464904
707.600000 0.464882
707.700000 0.464860
707.800000 0.464837
707.900000 0.464815
708.000000 0.464793
708.100000 0.464888
708.200000 0.464982
708.300000 0.465077
708.400000 0.465172
708.500000 0.465266
708.600000 0.465361
708.700000 0.465456
708.800000 0.465550
708.900000 0.465645
709.000000 0.465739
709.100000 0.465736
709.200000 0.465732
709.300000 0.465728
709.400000 0.465725
709.500000 0.465721
709.600000 0.465717
709.700000 0.465714
709.800000 0.465710
709.900000 0.465706
710.000000 0.465703
710.100000 0.465684
710.200000 0.465665
710.300000 0.465647
710.400000 0.465628
710.500000 0.465609
710.600000 0.465591
710.700000 0.465572
710.800000 0.465554
710.900000 0.465535
711.000000 0.465516
711.100000 0.465632
711.200000 0.465747
711.300000 0.465862
711.400000 0.465978
711.500000 0.466093
711.600000 0.466209
711.700000 0.466324
711.800000 0.466439
711.900000 0.466555
712.000000 0.466670
712.100000 0.466534
712.200000 0.466397
712.300000 0.466261
712.400000 0.466124
712.500000 0.465988
712.600000 0.465948
712.700000 0.465909
712.800000 0.465870
712.900000 0.465830
713.000000 0.465791
713.100000 0.465786
713.200000 0.465782
713.300000 0.465777
713.400000 0.465773
713.500000 0.465768
713.600000 0.465764
713.700000 0.465760
713.800000 0.465757
713.900000 0.465753
714.000000 0.465750
714.100000 0.465649
714.200000 0.465548
714.300000 0.465446
714.400000 0.465344
714.500000 0.465241
714.600000 0.465137
714.700000 0.465032
714.800000 0.464926
714.900000 0.464819
715.000000 0.464711
715.100000 0.464588
715.200000 0.464463
715.300000 0.464338
715.400000 0.464212
715.500000 0.464085
715.600000 0.463860
715.700000 0.463634
715.800000 0.463408
715.900000 0.463181
716.000000 0.462954
716.100000 0.462059
716.200000 0.461165
716.300000 0.460271
716.400000 0.459376
716.500000 0.458483
716.600000 0.456525
716.700000 0.454567
716.800000 0.452609
716.900000 0.450652
717.000000 0.448694
717.100000 0.446842
717.200000 0.444991
717.300000 0.443139
717.400000 0.441287
717.500000 0.439436
717.600000 0.438649
717.700000 0.437863
717.800000 0.437076
717.900000 0.436289
718.000000 0.435503
718.100000 0.434115
718.200000 0.432728
718.300000 0.431340
718.400000 0.429953
718.500000 0.428566
718.600000 0.427663
718.700000 0.426761
718.800000 0.425858
718.900000 0.424956
719.000000 0.424054
719.100000 0.424111
719.200000 0.424168
719.300000 0.424224
719.400000 0.424281
719.500000 0.424337
719.600000 0.424586
719.700000 0.424835
719.800000 0.425083
719.900000 0.425331
720.000000 0.425579
720.100000 0.426523
720.200000 0.427467
720.300000 0.428411
720.400000 0.429355
720.500000 0.430299
720.600000 0.432691
720.700000 0.435083
720.800000 0.437475
720.900000 0.439867
721.000000 0.442258
721.100000 0.444562
721.200000 0.446865
721.300000 0.449169
721.400000 0.451473
721.500000 0.453777
721.600000 0.454537
721.700000 0.455297
721.800000 0.456057
721.900000 0.456818
722.000000 0.457579
722.100000 0.457359
722.200000 0.457140
722.300000 0.456920
722.400000 0.456701
722.500000 0.456480
722.600000 0.454909
722.700000 0.453337
722.800000 0.451764
722.900000 0.450192
723.000000 0.448620
723.100000 0.446257
723.200000 0.443896
723.300000 0.441534
723.400000 0.439173
723.500000 0.436812
723.600000 0.436477
723.700000 0.436140
723.800000 0.435804
723.900000 0.435468
724.000000 0.435133
724.100000 0.435296
724.200000 0.435461
724.300000 0.435626
724.400000 0.435792
724.500000 0.435959
724.600000 0.436321
724.700000 0.436683
724.800000 0.437046
724.900000 0.437411
725.000000 0.437776
725.100000 0.438152
725.200000 0.438529
725.300000 0.438907
725.400000 0.439285
725.500000 0.439665
725.600000 0.440430
725.700000 0.441196
725.800000 0.441962
725.900000 0.442729
726.000000 0.443497
726.100000 0.443494
726.200000 0.443491
726.300000 0.443489
726.400000 0.443486
726.500000 0.443483
726.600000 0.443382
726.700000 0.443282
726.800000 0.443182
726.900000 0.443082
727.000000 0.442982
727.100000 0.442101
727.200000 0.441219
727.300000 0.440338
727.400000 0.439457
727.500000 0.438575
727.600000 0.438465
727.700000 0.438354
727.800000 0.438243
727.900000 0.438132
728.000000 0.438021
728.100000 0.439552
728.200000 0.441083
728.300000 0.442614
728.400000 0.444145
728.500000 0.445676
728.600000 0.445473
728.700000 0.445270
728.800000 0.445067
728.900000 0.444864
729.000000 0.444662
729.100000 0.444956
729.200000 0.445250
729.300000 0.445546
729.400000 0.445842
729.500000 0.446138
729.600000 0.446820
729.700000 0.447503
729.800000 0.448187
729.900000 0.448872
730.000000 0.449558
730.100000 0.449240
730.200000 0.448922
730.300000 0.448605
730.400000 0.448290
730.500000 0.447976
730.600000 0.447952
730.700000 0.447929
730.800000 0.447907
730.900000 0.447886
731.000000 0.447865
731.100000 0.448159
731.200000 0.448454
731.300000 0.448748
731.400000 0.449042
731.500000 0.449336
731.600000 0.450015
731.700000 0.450693
731.800000 0.451371
731.900000 0.452049
732.000000 0.452727
732.100000 0.453787
732.200000 0.454847
732.300000 0.455907
732.400000 0.456966
732.500000 0.458024
732.600000 0.458505
732.700000 0.458985
732.800000 0.459465
732.900000 0.459945
733.000000 0.460425
733.100000 0.460434
733.200000 0.460444
733.300000 0.460453
733.400000 0.460463
733.500000 0.460473
733.600000 0.460774
733.700000 0.461075
733.800000 0.461376
733.900000 0.461678
734.000000 0.461980
734.100000 0.462072
734.200000 0.462163
734.300000 0.462254
734.400000 0.462345
734.500000 0.462434
734.600000 0.462331
734.700000 0.462226
734.800000 0.462121
734.900000 0.462014
735.000000 0.461906
735.100000 0.462002
735.200000 0.462097
735.300000 0.462190
735.400000 0.462282
735.500000 0.462373
735.600000 0.462270
735.700000 0.462166
735.800000 0.462061
735.900000 0.461956
736.000000 0.461850
736.100000 0.461737
736.200000 0.461624
736.300000 0.461511
736.400000 0.461398
736.500000 0.461285
736.600000 0.461366
736.700000 0.461447
736.800000 0.461528
736.900000 0.461608
737.000000 0.461689
737.100000 0.461965
737.200000 0.462241
737.300000 0.462517
737.400000 0.462793
737.500000 0.463069
737.600000 0.463249
737.700000 0.463429
737.800000 0.463608
737.900000 0.463788
738.000000 0.463968
738.100000 0.463956
738.200000 0.463944
738.300000 0.463932
738.400000 0.463920
738.500000 0.463909
738.600000 0.463993
738.700000 0.464077
738.800000 0.464161
738.900000 0.464246
739.000000 0.464330
739.100000 0.464315
739.200000 0.464301
739.300000 0.464286
739.400000 0.464272
739.500000 0.464258
739.600000 0.464339
739.700000 0.464421
739.800000 0.464503
739.900000 0.464584
740.000000 0.464666
740.100000 0.464755
740.200000 0.464845
740.300000 0.464934
740.400000 0.465023
740.500000 0.465113
740.600000 0.465202
740.700000 0.465291
740.800000 0.465381
740.900000 0.465470
741.000000 0.465559
741.100000 0.465542
741.200000 0.465524
741.300000 0.465507
741.400000 0.465490
741.500000 0.465472
741.600000 0.465551
741.700000 0.465629
741.800000 0.465708
741.900000 0.465787
742.000000 0.465865
742.100000 0.465837
742.200000 0.465808
742.300000 0.465779
742.400000 0.465751
742.500000 0.465722
742.600000 0.465694
742.700000 0.465665
742.800000 0.465636
742.900000 0.465608
743.000000 0.465579
743.100000 0.465667
743.200000 0.465754
743.300000 0.465841
743.400000 0.465928
743.500000 0.466016
743.600000 0.466007
743.700000 0.465998
743.800000 0.465989
743.900000 0.465981
744.000000 0.465972
744.100000 0.465953
744.200000 0.465934
744.300000 0.465914
744.400000 0.465895
744.500000 0.465876
744.600000 0.465857
744.700000 0.465837
744.800000 0.465818
744.900000 0.465799
745.000000 0.465779
745.100000 0.465769
745.200000 0.465758
745.300000 0.465747
745.400000 0.465736
745.500000 0.465725
745.600000 0.465714
745.700000 0.465703
745.800000 0.465692
745.900000 0.465681
746.000000 0.465670
746.100000 0.465634
746.200000 0.465598
746.300000 0.465562
746.400000 0.465526
746.500000 0.465490
746.600000 0.465454
746.700000 0.465418
746.800000 0.465381
746.900000 0.465345
747.000000 0.465309
747.100000 0.465410
747.200000 0.465511
747.300000 0.465611
747.400000 0.465712
747.500000 0.465813
747.600000 0.465817
747.700000 0.465822
747.800000 0.465827
747.900000 0.465832
748.000000 0.465837
748.100000 0.465796
748.200000 0.465756
748.300000 0.465715
748.400000 0.465675
748.500000 0.465635
748.600000 0.465594
748.700000 0.465554
748.800000 0.465514
748.900000 0.465473
749.000000 0.465433
749.100000 0.465435
749.200000 0.465438
749.300000 0.465440
749.400000 0.465442
749.500000 0.465445
749.600000 0.465447
749.700000 0.465449
749.800000 0.465452
749.900000 0.465454
750.000000 0.465457
750.100000 0.465426
750.200000 0.465395
750.300000 0.465364
750.400000 0.465333
750.500000 0.465302
750.600000 0.465366
750.700000 0.465431
750.800000 0.465496
750.900000 0.465561
751.000000 0.465625
751.100000 0.465612
751.200000 0.465599
751.300000 0.465585
751.400000 0.465572
751.500000 0.465559
751.600000 0.465545
751.700000 0.465532
751.800000 0.465519
751.900000 0.465505
752.000000 0.465492
752.100000 0.465477
752.200000 0.465463
752.300000 0.465448
752.400000 0.465433
752.500000 0.465418
752.600000 0.465404
752.700000 0.465389
752.800000 0.465374
752.900000 0.465359
753.000000 0.465345
753.100000 0.465400
753.200000 0.465455
753.300000 0.465509
753.400000 0.465564
753.500000 0.465619
753.600000 0.465578
753.700000 0.465536
753.800000 0.465494
753.900000 0.465452
754.000000 0.465411
754.100000 0.465375
754.200000 0.465340
754.300000 0.465305
754.400000 0.465271
754.500000 0.465237
754.600000 0.465205
754.700000 0.465173
754.800000 0.465143
754.900000 0.465113
755.000000 0.465084
755.100000 0.465046
755.200000 0.465009
755.300000 0.464972
755.400000 0.464937
755.500000 0.464902
755.600000 0.464869
755.700000 0.464836
755.800000 0.464803
755.900000 0.464772
756.000000 0.464741
756.100000 0.464746
756.200000 0.464752
756.300000 0.464758
756.400000 0.464764
756.500000 0.464769
756.600000 0.464870
756.700000 0.464970
756.800000 0.465070
756.900000 0.465170
757.000000 0.465270
757.100000 0.465260
757.200000 0.465250
757.300000 0.465240
757.400000 0.465230
757.500000 0.465219
757.600000 0.465209
757.700000 0.465199
757.800000 0.465189
757.900000 0.465178
758.000000 0.465168
758.100000 0.464782
758.200000 0.464395
758.300000 0.464008
758.400000 0.463622
758.500000 0.463235
758.600000 0.458937
758.700000 0.454639
758.800000 0.450342
758.900000 0.446045
759.000000 0.441748
759.100000 0.424561
759.200000 0.407376
759.300000 0.390191
759.400000 0.373006
759.500000 0.355822
759.600000 0.330721
759.700000 0.305622
759.800000 0.280523
759.900000 0.255426
760.000000 0.230331
760.100000 0.216973
760.200000 0.203615
760.300000 0.190258
760.400000 0.176901
760.500000 0.163544
760.600000 0.164969
760.700000 0.166393
760.800000 0.167817
760.900000 0.169241
761.000000 0.170664
761.100000 0.184185
761.200000 0.197704
761.300000 0.211220
761.400000 0.224734
761.500000 0.238246
761.600000 0.252422
761.700000 0.266596
761.800000 0.280767
761.900000 0.294936
762.000000 0.309102
762.100000 0.307093
762.200000 0.305085
762.300000 0.303077
762.400000 0.301069
762.500000 0.299061
762.600000 0.291435
762.700000 0.283808
762.800000 0.276182
762.900000 0.268556
763.000000 0.260931
763.100000 0.261002
763.200000 0.261072
763.300000 0.261143
763.400000 0.261214
763.500000 0.261284
763.600000 0.265543
763.700000 0.269800
763.800000 0.274057
763.900000 0.278313
764.000000 0.282568
764.100000 0.287687
764.200000 0.292805
764.300000 0.297922
764.400000 0.303039
764.500000 0.308154
764.600000 0.314221
764.700000 0.320286
764.800000 0.326351
764.900000 0.332415
765.000000 0.338478
765.100000 0.343895
765.200000 0.349312
765.300000 0.354729
765.400000 0.360146
765.500000 0.365563
765.600000 0.369840
765.700000 0.374116
765.800000 0.378392
765.900000 0.382667
766.000000 0.386943
766.100000 0.390591
766.200000 0.394237
766.300000 0.397883
766.400000 0.401527
766.500000 0.405170
766.600000 0.409002
766.700000 0.412832
766.800000 0.416662
766.900000 0.420490
767.000000 0.424317
767.100000 0.426851
767.200000 0.429384
767.300000 0.431917
767.400000 0.434450
767.500000 0.436982
767.600000 0.438376
767.700000 0.439769
767.800000 0.441162
767.900000 0.442554
768.000000 0.443947
768.100000 0.444905
768.200000 0.445863
768.300000 0.446821
768.400000 0.447779
768.500000 0.448737
768.600000 0.449410
768.700000 0.450082
768.800000 0.450754
768.900000 0.451426
769.000000 0.452099
769.100000 0.452617
769.200000 0.453136
769.300000 0.453655
769.400000 0.454175
769.500000 0.454696
769.600000 0.455407
769.700000 0.456120
769.800000 0.456833
769.900000 0.457548
770.000000 0.458264
770.100000 0.458707
770.200000 0.459152
770.300000 0.459597
770.400000 0.460044
770.500000 0.460492
770.600000 0.460657
770.700000 0.460823
770.800000 0.460990
770.900000 0.461158
771.000000 0.461326
771.100000 0.461421
771.200000 0.461515
771.300000 0.461609
771.400000 0.461702
771.500000 0.461795
771.600000 0.461792
771.700000 0.461789
771.800000 0.461786
771.900000 0.461782
772.000000 0.461778
772.100000 0.461761
772.200000 0.461745
772.300000 0.461728
772.400000 0.461710
772.500000 0.461693
772.600000 0.461675
772.700000 0.461657
772.800000 0.461638
772.900000 0.461620
773.000000 0.461601
773.100000 0.461666
773.200000 0.461731
773.300000 0.461796
773.400000 0.461862
773.500000 0.461927
773.600000 0.461898
773.700000 0.461870
773.800000 0.461842
773.900000 0.461814
774.000000 0.461786
774.100000 0.461780
774.200000 0.461775
774.300000 0.461768
774.400000 0.461761
774.500000 0.461753
774.600000 0.461744
774.700000 0.461734
774.800000 0.461724
774.900000 0.461712
775.000000 0.461700
775.100000 0.461667
775.200000 0.461632
775.300000 0.461597
775.400000 0.461562
775.500000 0.461525
775.600000 0.461487
775.700000 0.461449
775.800000 0.461409
775.900000 0.461370
776.000000 0.461330
776.100000 0.461302
776.200000 0.461275
776.300000 0.461248
776.400000 0.461220
776.500000 0.461194
776.600000 0.461167
776.700000 0.461141
776.800000 0.461115
776.900000 0.461088
777.000000 0.461062
777.100000 0.461023
777.200000 0.460985
777.300000 0.460946
777.400000 0.460907
777.500000 0.460868
777.600000 0.460829
777.700000 0.460791
777.800000 0.460752
777.900000 0.460713
778.000000 0.460674
778.100000 0.460638
778.200000 0.460602
778.300000 0.460566
778.400000 0.460530
778.500000 0.460494
778.600000 0.460457
778.700000 0.460421
778.800000 0.460385
778.900000 0.460349
779.000000 0.460313
779.100000 0.460392
779.200000 0.460471
779.300000 0.460551
779.400000 0.460630
779.500000 0.460709
779.600000 0.460694
779.700000 0.460679
779.800000 0.460664
779.900000 0.460649
780.000000 0.460634
780.100000 0.460553
780.200000 0.460472
780.300000 0.460391
780.400000 0.460310
780.500000 0.460229
780.600000 0.460149
780.700000 0.460068
780.800000 0.459987
780.900000 0.459906
781.000000 0.459825
781.100000 0.459829
781.200000 0.459832
781.300000 0.459836
781.400000 0.459839
781.500000 0.459843
781.600000 0.459846
781.700000 0.459850
781.800000 0.459853
781.900000 0.459857
782.000000 0.459860
782.100000 0.459825
782.200000 0.459789
782.300000 0.459754
782.400000 0.459718
782.500000 0.459682
782.600000 0.459647
782.700000 0.459611
782.800000 0.459576
782.900000 0.459540
783.000000 0.459505
783.100000 0.459461
783.200000 0.459416
783.300000 0.459372
783.400000 0.459328
783.500000 0.459283
783.600000 0.459239
783.700000 0.459195
783.800000 0.459150
783.900000 0.459106
784.000000 0.459062
784.100000 0.459011
784.200000 0.458959
784.300000 0.458908
784.400000 0.458857
784.500000 0.458805
784.600000 0.458754
784.700000 0.458703
784.800000 0.458651
784.900000 0.458600
785.000000 0.458549
785.100000 0.458548
785.200000 0.458548
785.300000 0.458547
785.400000 0.458546
785.500000 0.458545
785.600000 0.458545
785.700000 0.458544
785.800000 0.458543
785.900000 0.458543
786.000000 0.458542
786.100000 0.458405
786.200000 0.458268
786.300000 0.458132
786.400000 0.457995
786.500000 0.457858
786.600000 0.457815
786.700000 0.457772
786.800000 0.457729
786.900000 0.457687
787.000000 0.457644
787.100000 0.457527
787.200000 0.457410
787.300000 0.457293
787.400000 0.457176
787.500000 0.457059
787.600000 0.457036
787.700000 0.457013
787.800000 0.456990
787.900000 0.456967
788.000000 0.456943
788.100000 0.456799
788.200000 0.456655
788.300000 0.456511
788.400000 0.456366
788.500000 0.456222
788.600000 0.455984
788.700000 0.455746
788.800000 0.455509
788.900000 0.455271
789.000000 0.455033
789.100000 0.454793
789.200000 0.454553
789.300000 0.454313
789.400000 0.454073
789.500000 0.453833
789.600000 0.453780
789.700000 0.453727
789.800000 0.453675
789.900000 0.453622
790.000000 0.453569
790.100000 0.453559
790.200000 0.453549
790.300000 0.453539
790.400000 0.453529
790.500000 0.453519
790.600000 0.453509
790.700000 0.453499
790.800000 0.453489
790.900000 0.453479
791.000000 0.453468
791.100000 0.453644
791.200000 0.453820
791.300000 0.453995
791.400000 0.454171
791.500000 0.454346
791.600000 0.454335
791.700000 0.454323
791.800000 0.454312
791.900000 0.454300
792.000000 0.454289
792.100000 0.454140
792.200000 0.453991
792.300000 0.453842
792.400000 0.453693
792.500000 0.453544
792.600000 0.453582
792.700000 0.453620
792.800000 0.453658
792.900000 0.453696
793.000000 0.453733
793.100000 0.453997
793.200000 0.454260
793.300000 0.454524
793.400000 0.454787
793.500000 0.455051
793.600000 0.455314
793.700000 0.455578
793.800000 0.455841
793.900000 0.456104
794.000000 0.456368
794.100000 0.456311
794.200000 0.456255
794.300000 0.456198
794.400000 0.456142
794.500000 0.456085
794.600000 0.455936
794.700000 0.455786
794.800000 0.455636
794.900000 0.455487
795.000000 0.455337
795.100000 0.455117
795.200000 0.454896
795.300000 0.454676
795.400000 0.454455
795.500000 0.454235
795.600000 0.453735
795.700000 0.453235
795.800000 0.452736
795.900000 0.452236
796.000000 0.451736
796.100000 0.451522
796.200000 0.451308
796.300000 0.451094
796.400000 0.450880
796.500000 0.450665
796.600000 0.451010
796.700000 0.451354
796.800000 0.451699
796.900000 0.452043
797.000000 0.452387
797.100000 0.452624
797.200000 0.452860
797.300000 0.453096
797.400000 0.453332
797.500000 0.453568
797.600000 0.453618
797.700000 0.453667
797.800000 0.453717
797.900000 0.453767
798.000000 0.453817
798.100000 0.453807
798.200000 0.453798
798.300000 0.453788
798.400000 0.453779
798.500000 0.453769
798.600000 0.453760
798.700000 0.453750
798.800000 0.453740
798.900000 0.453731
799.000000 0.453721
799.100000 0.453690
799.200000 0.453659
799.300000 0.453628
799.400000 0.453597
799.500000 0.453566
799.600000 0.453350
799.700000 0.453133
799.800000 0.452916
799.900000 0.452699
800.000000 0.452483
800.100000 0.452279
800.200000 0.452076
800.300000 0.451873
800.400000 0.451669
800.500000 0.451466
800.600000 0.451449
800.700000 0.451431
800.800000 0.451414
800.900000 0.451396
801.000000 0.451379
801.100000 0.451372
801.200000 0.451365
801.300000 0.451358
801.400000 0.451351
801.500000 0.451344
801.600000 0.451430
801.700000 0.451516
801.800000 0.451602
801.900000 0.451688
802.000000 0.451774
802.100000 0.451750
802.200000 0.451726
802.300000 0.451703
802.400000 0.451679
802.500000 0.451655
802.600000 0.451631
802.700000 0.451608
802.800000 0.451584
802.900000 0.451560
803.000000 0.451537
803.100000 0.451642
803.200000 0.451747
803.300000 0.451853
803.400000 0.451958
803.500000 0.452063
803.600000 0.452076
803.700000 0.451873
803.800000 0.451670
803.900000 0.450773
804.000000 0.449875
804.100000 0.448963
804.200000 0.448051
804.300000 0.447139
804.400000 0.446228
804.500000 0.445340
804.600000 0.444634
804.700000 0.443904
804.800000 0.443173
804.900000 0.442442
805.000000 0.441709
805.100000 0.440964
805.200000 0.440217
805.300000 0.439470
805.400000 0.438722
805.500000 0.437998
805.600000 0.437094
805.700000 0.436166
805.800000 0.435239
805.900000 0.434311
806.000000 0.433383
806.100000 0.432450
806.200000 0.431517
806.300000 0.430608
806.400000 0.429699
806.500000 0.428766
806.600000 0.427833
806.700000 0.426900
806.800000 0.425968
806.900000 0.425035
807.000000 0.424102
807.100000 0.423209
807.200000 0.422316
807.300000 0.420726
807.400000 0.419135
807.500000 0.417305
807.600000 0.415475
807.700000 0.413669
807.800000 0.411863
807.900000 0.410033
808.000000 0.408202
808.100000 0.406268
808.200000 0.404335
808.300000 0.402427
808.400000 0.400519
808.500000 0.398589
808.600000 0.396660
808.700000 0.394755
808.800000 0.392852
808.900000 0.390926
809.000000 0.389000
809.100000 0.387135
809.200000 0.385271
809.300000 0.383384
809.400000 0.381497
809.500000 0.379635
809.600000 0.377851
809.700000 0.376043
809.800000 0.374234
809.900000 0.372450
810.000000 0.370665
810.100000 0.368847
810.200000 0.367028
810.300000 0.365233
810.400000 0.363438
810.500000 0.361619
810.600000 0.359652
810.700000 0.357711
810.800000 0.355771
810.900000 0.353809
811.000000 0.351849
811.100000 0.349844
811.200000 0.347842
811.300000 0.345818
811.400000 0.343796
811.500000 0.341800
811.600000 0.339877
811.700000 0.337931
811.800000 0.335987
811.900000 0.334067
812.000000 0.332150
812.100000 0.330287
812.200000 0.328425
812.300000 0.326587
812.400000 0.324750
812.500000 0.322890
812.600000 0.320566
812.700000 0.318271
812.800000 0.315981
812.900000 0.313674
813.000000 0.311373
813.100000 0.308592
813.200000 0.305822
813.300000 0.303087
813.400000 0.300364
813.500000 0.297629
813.600000 0.295469
813.700000 0.293338
813.800000 0.291211
813.900000 0.289066
814.000000 0.286926
814.100000 0.285028
814.200000 0.283132
814.300000 0.281216
814.400000 0.279301
814.500000 0.277411
814.600000 0.275111
814.700000 0.272795
814.800000 0.270487
814.900000 0.268208
815.000000 0.265936
815.100000 0.263562
815.200000 0.261196
815.300000 0.258861
815.400000 0.256535
815.500000 0.254194
815.600000 0.251918
815.700000 0.249671
815.800000 0.247433
815.900000 0.245179
816.000000 0.242934
816.100000 0.240957
816.200000 0.238985
816.300000 0.236995
816.400000 0.235009
816.500000 0.233050
816.600000 0.232125
816.700000 0.231168
816.800000 0.230201
816.900000 0.229245
817.000000 0.228280
817.100000 0.226583
817.200000 0.224887
817.300000 0.223213
817.400000 0.221539
817.500000 0.219843
817.600000 0.217285
817.700000 0.214763
817.800000 0.212254
817.900000 0.209736
818.000000 0.207231
818.100000 0.206193
818.200000 0.205145
818.300000 0.204109
818.400000 0.203063
818.500000 0.201984
818.600000 0.200762
818.700000 0.199555
818.800000 0.198340
818.900000 0.197095
819.000000 0.195841
819.100000 0.194191
819.200000 0.192540
819.300000 0.190865
819.400000 0.189190
819.500000 0.187537
819.600000 0.185843
819.700000 0.184126
819.800000 0.182409
819.900000 0.180715
820.000000 0.179020
820.100000 0.178233
820.200000 0.177428
820.300000 0.176627
820.400000 0.175809
820.500000 0.174950
820.600000 0.173853
820.700000 0.172766
820.800000 0.171666
820.900000 0.170529
821.000000 0.169378
821.100000 0.167530
821.200000 0.165684
821.300000 0.163816
821.400000 0.161950
821.500000 0.160109
821.600000 0.157972
821.700000 0.155821
821.800000 0.153678
821.900000 0.151566
822.000000 0.149463
822.100000 0.146457
822.200000 0.143481
822.300000 0.140557
822.400000 0.137662
822.500000 0.134773
822.600000 0.131534
822.700000 0.128356
822.800000 0.125216
822.900000 0.122093
823.000000 0.119010
823.100000 0.118036
823.200000 0.117045
823.300000 0.116059
823.400000 0.115056
823.500000 0.114014
823.600000 0.113697
823.700000 0.113363
823.800000 0.112991
823.900000 0.112558
824.000000 0.112086
824.100000 0.110848
824.200000 0.109595
824.300000 0.108305
824.400000 0.106999
824.500000 0.105702
824.600000 0.104062
824.700000 0.102395
824.800000 0.100724
824.900000 0.099073
825.000000 0.097419
825.100000 0.095542
825.200000 0.093668
825.300000 0.091821
825.400000 0.089978
825.500000 0.088115
825.600000 0.086255
825.700000 0.084423
825.800000 0.082594
825.900000 0.080744
826.000000 0.078899
826.100000 0.077350
826.200000 0.075792
826.300000 0.074202
826.400000 0.072603
826.500000 0.071019
826.600000 0.069310
826.700000 0.067576
826.800000 0.065838
826.900000 0.064121
827.000000 0.062401
827.100000 0.060300
827.200000 0.058216
827.300000 0.056174
827.400000 0.054150
827.500000 0.052122
827.600000 0.050218
827.700000 0.048349
827.800000 0.046490
827.900000 0.044619
828.000000 0.042759
828.100000 0.041983
828.200000 0.041203
828.300000 0.040420
828.400000 0.039634
828.500000 0.038866
828.600000 0.038023
828.700000 0.037156
828.800000 0.036289
828.900000 0.035422
829.000000 0.034555
829.100000 0.033709
829.200000 0.032863
829.300000 0.032038
829.400000 0.031211
829.500000 0.030361
829.600000 0.029547
829.700000 0.028730
829.800000 0.027909
829.900000 0.027085
830.000000 0.026257
830.100000 0.025412
830.200000 0.024565
830.300000 0.023695
830.400000 0.022824
830.500000 0.021952
830.600000 0.021110
830.700000 0.020265
830.800000 0.019416
830.900000 0.018587
831.000000 0.017754
831.100000 0.016857
831.200000 0.015960
831.300000 0.015064
831.400000 0.014168
831.500000 0.013272
831.600000 0.012349
831.700000 0.011454
831.800000 0.010563
831.900000 0.009653
832.000000 0.008749
832.100000 0.007882
832.200000 0.007012
832.300000 0.006140
832.400000 0.005265
832.500000 0.004410
832.600000 0.003554
832.700000 0.002672
832.800000 0.001785
832.900000 0.000895
