# LSST transmission (instrument+atmosphere)
#   wavelength[nm] Thoughput
386.400000 0.000000
386.500000 0.000254
386.600000 0.000509
386.700000 0.001006
386.800000 0.001503
386.900000 0.002015
387.000000 0.002529
387.100000 0.003030
387.200000 0.003533
387.300000 0.004050
387.400000 0.004569
387.500000 0.005089
387.600000 0.005609
387.700000 0.006116
387.800000 0.006624
387.900000 0.007147
388.000000 0.007670
388.100000 0.008181
388.200000 0.008693
388.300000 0.009220
388.400000 0.009748
388.500000 0.010263
388.600000 0.010782
388.700000 0.011316
388.800000 0.011851
388.900000 0.012374
389.000000 0.012898
389.100000 0.013432
389.200000 0.013968
389.300000 0.014505
389.400000 0.015042
389.500000 0.015567
389.600000 0.016092
389.700000 0.016633
389.800000 0.017174
389.900000 0.017702
390.000000 0.018232
390.100000 0.018783
390.200000 0.019335
390.300000 0.019874
390.400000 0.020415
390.500000 0.020971
390.600000 0.021522
390.700000 0.022075
390.800000 0.022628
390.900000 0.023169
391.000000 0.023711
391.100000 0.024266
391.200000 0.024822
391.300000 0.025365
391.400000 0.025908
391.500000 0.026735
391.600000 0.027563
391.700000 0.028647
391.800000 0.029732
391.900000 0.030820
392.000000 0.031910
392.100000 0.033011
392.200000 0.034115
392.300000 0.035221
392.400000 0.036330
392.500000 0.037442
392.600000 0.038545
392.700000 0.039650
392.800000 0.040758
392.900000 0.041867
393.000000 0.042978
393.100000 0.044106
393.200000 0.045237
393.300000 0.046355
393.400000 0.047475
393.500000 0.048598
393.600000 0.049736
393.700000 0.050876
393.800000 0.052020
393.900000 0.053166
394.000000 0.054314
394.100000 0.055449
394.200000 0.056586
394.300000 0.057726
394.400000 0.058867
394.500000 0.060010
394.600000 0.061156
394.700000 0.062304
394.800000 0.063453
394.900000 0.064620
395.000000 0.065789
395.100000 0.066941
395.200000 0.068095
395.300000 0.069251
395.400000 0.070410
395.500000 0.071571
395.600000 0.072734
395.700000 0.073899
395.800000 0.075066
395.900000 0.076236
396.000000 0.077408
396.100000 0.078605
396.200000 0.079804
396.300000 0.081006
396.400000 0.082210
396.500000 0.083432
396.600000 0.084633
396.700000 0.085821
396.800000 0.087011
396.900000 0.088203
397.000000 0.089396
397.100000 0.090593
397.200000 0.091792
397.300000 0.092993
397.400000 0.094195
397.500000 0.095398
397.600000 0.096603
397.700000 0.097810
397.800000 0.099018
397.900000 0.100228
398.000000 0.101439
398.100000 0.102664
398.200000 0.103890
398.300000 0.105102
398.400000 0.106317
398.500000 0.107533
398.600000 0.108781
398.700000 0.110031
398.800000 0.111284
398.900000 0.112539
399.000000 0.113796
399.100000 0.115024
399.200000 0.116254
399.300000 0.117485
399.400000 0.118718
399.500000 0.119954
399.600000 0.121191
399.700000 0.122430
399.800000 0.123672
399.900000 0.124930
400.000000 0.126190
400.100000 0.127430
400.200000 0.128672
400.300000 0.129916
400.400000 0.131162
400.500000 0.132409
400.600000 0.133658
400.700000 0.134909
400.800000 0.136161
400.900000 0.137416
401.000000 0.138672
401.100000 0.139965
401.200000 0.141260
401.300000 0.142558
401.400000 0.143858
401.500000 0.145176
401.600000 0.146457
401.700000 0.147724
401.800000 0.148993
401.900000 0.150263
402.000000 0.151535
402.100000 0.152816
402.200000 0.154098
402.300000 0.155383
402.400000 0.156669
402.500000 0.157958
402.600000 0.159248
402.700000 0.160540
402.800000 0.161833
402.900000 0.163129
403.000000 0.164427
403.100000 0.165746
403.200000 0.167067
403.300000 0.168375
403.400000 0.169684
403.500000 0.170995
403.600000 0.172309
403.700000 0.173624
403.800000 0.174941
403.900000 0.176260
404.000000 0.177581
404.100000 0.178884
404.200000 0.180188
404.300000 0.181494
404.400000 0.182801
404.500000 0.184110
404.600000 0.185471
404.700000 0.186834
404.800000 0.188199
404.900000 0.189583
405.000000 0.190969
405.100000 0.192298
405.200000 0.193628
405.300000 0.194961
405.400000 0.196295
405.500000 0.197631
405.600000 0.198969
405.700000 0.200308
405.800000 0.201650
405.900000 0.202993
406.000000 0.204338
406.100000 0.205689
406.200000 0.207043
406.300000 0.208398
406.400000 0.209755
406.500000 0.211130
406.600000 0.212507
406.700000 0.213870
406.800000 0.215234
406.900000 0.216601
407.000000 0.217969
407.100000 0.219329
407.200000 0.220691
407.300000 0.222054
407.400000 0.223419
407.500000 0.224786
407.600000 0.226155
407.700000 0.227525
407.800000 0.228897
407.900000 0.230271
408.000000 0.231647
408.100000 0.233046
408.200000 0.234447
408.300000 0.235834
408.400000 0.237223
408.500000 0.238613
408.600000 0.240005
408.700000 0.241400
408.800000 0.242795
408.900000 0.244193
409.000000 0.245593
409.100000 0.246983
409.200000 0.248376
409.300000 0.249770
409.400000 0.251166
409.500000 0.252563
409.600000 0.253963
409.700000 0.255364
409.800000 0.256766
409.900000 0.258187
410.000000 0.259610
410.100000 0.261015
410.200000 0.262422
410.300000 0.263831
410.400000 0.265241
410.500000 0.266653
410.600000 0.268138
410.700000 0.269626
410.800000 0.271115
410.900000 0.272608
411.000000 0.274102
411.100000 0.275534
411.200000 0.276967
411.300000 0.278402
411.400000 0.279839
411.500000 0.281294
411.600000 0.282751
411.700000 0.284193
411.800000 0.285637
411.900000 0.287083
412.000000 0.288530
412.100000 0.289966
412.200000 0.291403
412.300000 0.292373
412.400000 0.293344
412.500000 0.294149
412.600000 0.294954
412.700000 0.295778
412.800000 0.296602
412.900000 0.297427
413.000000 0.298253
413.100000 0.299076
413.200000 0.299901
413.300000 0.300743
413.400000 0.301586
413.500000 0.302414
413.600000 0.303242
413.700000 0.304088
413.800000 0.304935
413.900000 0.305766
414.000000 0.306598
414.100000 0.307432
414.200000 0.308267
414.300000 0.309086
414.400000 0.309906
414.500000 0.310744
414.600000 0.311582
414.700000 0.312421
414.800000 0.313262
414.900000 0.314086
415.000000 0.314911
415.100000 0.315743
415.200000 0.316576
415.300000 0.317392
415.400000 0.318210
415.500000 0.319045
415.600000 0.319882
415.700000 0.320548
415.800000 0.321214
415.900000 0.321403
416.000000 0.321591
416.100000 0.321805
416.200000 0.322020
416.300000 0.322234
416.400000 0.322449
416.500000 0.322663
416.600000 0.322878
416.700000 0.323093
416.800000 0.323308
416.900000 0.323523
417.000000 0.323739
417.100000 0.323919
417.200000 0.324100
417.300000 0.324281
417.400000 0.324462
417.500000 0.324643
417.600000 0.324824
417.700000 0.325005
417.800000 0.325186
417.900000 0.325367
418.000000 0.325549
418.100000 0.325752
418.200000 0.325956
418.300000 0.326160
418.400000 0.326364
418.500000 0.326568
418.600000 0.326772
418.700000 0.326976
418.800000 0.327180
418.900000 0.327384
419.000000 0.327589
419.100000 0.327786
419.200000 0.327983
419.300000 0.328181
419.400000 0.328378
419.500000 0.328576
419.600000 0.328774
419.700000 0.328971
419.800000 0.329169
419.900000 0.329367
420.000000 0.329565
420.100000 0.329751
420.200000 0.329936
420.300000 0.330122
420.400000 0.330308
420.500000 0.330494
420.600000 0.330680
420.700000 0.330866
420.800000 0.331052
420.900000 0.331238
421.000000 0.331424
421.100000 0.331608
421.200000 0.331792
421.300000 0.331976
421.400000 0.332160
421.500000 0.332344
421.600000 0.332529
421.700000 0.332713
421.800000 0.332897
421.900000 0.333082
422.000000 0.333266
422.100000 0.333450
422.200000 0.333635
422.300000 0.333819
422.400000 0.334003
422.500000 0.334188
422.600000 0.334373
422.700000 0.334557
422.800000 0.334742
422.900000 0.334927
423.000000 0.335112
423.100000 0.335214
423.200000 0.335316
423.300000 0.335418
423.400000 0.335520
423.500000 0.335623
423.600000 0.335811
423.700000 0.336000
423.800000 0.336188
423.900000 0.336377
424.000000 0.336566
424.100000 0.336753
424.200000 0.336940
424.300000 0.337128
424.400000 0.337316
424.500000 0.337503
424.600000 0.337691
424.700000 0.337879
424.800000 0.338067
424.900000 0.338255
425.000000 0.338443
425.100000 0.338643
425.200000 0.338843
425.300000 0.339043
425.400000 0.339243
425.500000 0.339443
425.600000 0.339644
425.700000 0.339844
425.800000 0.340045
425.900000 0.340245
426.000000 0.340446
426.100000 0.340626
426.200000 0.340806
426.300000 0.340986
426.400000 0.341166
426.500000 0.341346
426.600000 0.341526
426.700000 0.341706
426.800000 0.341886
426.900000 0.342067
427.000000 0.342247
427.100000 0.342406
427.200000 0.342565
427.300000 0.342724
427.400000 0.342884
427.500000 0.343043
427.600000 0.343115
427.700000 0.343187
427.800000 0.343259
427.900000 0.343331
428.000000 0.343403
428.100000 0.343670
428.200000 0.343936
428.300000 0.344203
428.400000 0.344470
428.500000 0.344737
428.600000 0.344916
428.700000 0.345096
428.800000 0.345276
428.900000 0.345456
429.000000 0.345635
429.100000 0.345832
429.200000 0.346029
429.300000 0.346226
429.400000 0.346423
429.500000 0.346620
429.600000 0.346730
429.700000 0.346840
429.800000 0.346949
429.900000 0.347059
430.000000 0.347168
430.100000 0.347338
430.200000 0.347508
430.300000 0.347677
430.400000 0.347847
430.500000 0.348017
430.600000 0.348187
430.700000 0.348357
430.800000 0.348527
430.900000 0.348697
431.000000 0.348867
431.100000 0.349037
431.200000 0.349207
431.300000 0.349377
431.400000 0.349547
431.500000 0.349717
431.600000 0.349887
431.700000 0.350057
431.800000 0.350227
431.900000 0.350398
432.000000 0.350568
432.100000 0.350758
432.200000 0.350949
432.300000 0.351139
432.400000 0.351330
432.500000 0.351520
432.600000 0.351623
432.700000 0.351725
432.800000 0.351827
432.900000 0.351930
433.000000 0.352032
433.100000 0.352191
433.200000 0.352349
433.300000 0.352508
433.400000 0.352667
433.500000 0.352826
433.600000 0.352985
433.700000 0.353145
433.800000 0.353304
433.900000 0.353464
434.000000 0.353624
434.100000 0.353702
434.200000 0.353780
434.300000 0.353858
434.400000 0.353935
434.500000 0.354012
434.600000 0.354177
434.700000 0.354341
434.800000 0.354504
434.900000 0.354667
435.000000 0.354829
435.100000 0.354986
435.200000 0.355143
435.300000 0.355298
435.400000 0.355454
435.500000 0.355608
435.600000 0.355762
435.700000 0.355916
435.800000 0.356070
435.900000 0.356223
436.000000 0.356376
436.100000 0.356531
436.200000 0.356686
436.300000 0.356841
436.400000 0.356996
436.500000 0.357150
436.600000 0.357305
436.700000 0.357458
436.800000 0.357612
436.900000 0.357764
437.000000 0.357917
437.100000 0.358056
437.200000 0.358195
437.300000 0.358333
437.400000 0.358472
437.500000 0.358610
437.600000 0.358749
437.700000 0.358887
437.800000 0.359026
437.900000 0.359165
438.000000 0.359305
438.100000 0.359354
438.200000 0.359403
438.300000 0.359453
438.400000 0.359504
438.500000 0.359555
438.600000 0.359696
438.700000 0.359837
438.800000 0.359978
438.900000 0.360120
439.000000 0.360262
439.100000 0.360313
439.200000 0.360364
439.300000 0.360416
439.400000 0.360468
439.500000 0.360520
439.600000 0.360663
439.700000 0.360806
439.800000 0.360950
439.900000 0.361095
440.000000 0.361240
440.100000 0.361398
440.200000 0.361556
440.300000 0.361715
440.400000 0.361875
440.500000 0.362035
440.600000 0.362197
440.700000 0.362359
440.800000 0.362521
440.900000 0.362684
441.000000 0.362848
441.100000 0.363006
441.200000 0.363164
441.300000 0.363322
441.400000 0.363480
441.500000 0.363637
441.600000 0.363795
441.700000 0.363952
441.800000 0.364110
441.900000 0.364267
442.000000 0.364425
442.100000 0.364568
442.200000 0.364711
442.300000 0.364855
442.400000 0.364998
442.500000 0.365142
442.600000 0.365195
442.700000 0.365249
442.800000 0.365302
442.900000 0.365356
443.000000 0.365410
443.100000 0.365549
443.200000 0.365689
443.300000 0.365829
443.400000 0.365969
443.500000 0.366109
443.600000 0.366248
443.700000 0.366388
443.800000 0.366528
443.900000 0.366668
444.000000 0.366808
444.100000 0.366846
444.200000 0.366885
444.300000 0.366923
444.400000 0.366961
444.500000 0.366999
444.600000 0.367037
444.700000 0.367075
444.800000 0.367113
444.900000 0.367152
445.000000 0.367190
445.100000 0.367351
445.200000 0.367512
445.300000 0.367674
445.400000 0.367835
445.500000 0.367996
445.600000 0.368158
445.700000 0.368319
445.800000 0.368481
445.900000 0.368642
446.000000 0.368804
446.100000 0.369033
446.200000 0.369263
446.300000 0.369492
446.400000 0.369722
446.500000 0.369952
446.600000 0.370000
446.700000 0.370049
446.800000 0.370098
446.900000 0.370147
447.000000 0.370196
447.100000 0.370334
447.200000 0.370473
447.300000 0.370612
447.400000 0.370751
447.500000 0.370890
447.600000 0.370938
447.700000 0.370987
447.800000 0.371035
447.900000 0.371083
448.000000 0.371132
448.100000 0.371281
448.200000 0.371430
448.300000 0.371580
448.400000 0.371729
448.500000 0.371879
448.600000 0.372029
448.700000 0.372179
448.800000 0.372330
448.900000 0.372481
449.000000 0.372631
449.100000 0.372754
449.200000 0.372876
449.300000 0.372998
449.400000 0.373119
449.500000 0.373239
449.600000 0.373359
449.700000 0.373479
449.800000 0.373597
449.900000 0.373715
450.000000 0.373832
450.100000 0.373867
450.200000 0.373901
450.300000 0.373934
450.400000 0.373966
450.500000 0.373998
450.600000 0.374120
450.700000 0.374241
450.800000 0.374362
450.900000 0.374483
451.000000 0.374603
451.100000 0.374711
451.200000 0.374819
451.300000 0.374927
451.400000 0.375035
451.500000 0.375143
451.600000 0.375160
451.700000 0.375177
451.800000 0.375194
451.900000 0.375210
452.000000 0.375226
452.100000 0.375350
452.200000 0.375473
452.300000 0.375596
452.400000 0.375719
452.500000 0.375842
452.600000 0.375964
452.700000 0.376086
452.800000 0.376208
452.900000 0.376330
453.000000 0.376451
453.100000 0.376491
453.200000 0.376530
453.300000 0.376570
453.400000 0.376610
453.500000 0.376650
453.600000 0.376781
453.700000 0.376913
453.800000 0.377044
453.900000 0.377175
454.000000 0.377307
454.100000 0.377416
454.200000 0.377526
454.300000 0.377636
454.400000 0.377748
454.500000 0.377860
454.600000 0.377973
454.700000 0.378087
454.800000 0.378201
454.900000 0.378317
455.000000 0.378434
455.100000 0.378458
455.200000 0.378484
455.300000 0.378510
455.400000 0.378536
455.500000 0.378563
455.600000 0.378683
455.700000 0.378802
455.800000 0.378923
455.900000 0.379043
456.000000 0.379164
456.100000 0.379186
456.200000 0.379209
456.300000 0.379231
456.400000 0.379253
456.500000 0.379275
456.600000 0.379388
456.700000 0.379500
456.800000 0.379613
456.900000 0.379725
457.000000 0.379838
457.100000 0.379975
457.200000 0.380112
457.300000 0.380249
457.400000 0.380387
457.500000 0.380524
457.600000 0.380569
457.700000 0.380615
457.800000 0.380661
457.900000 0.380707
458.000000 0.380753
458.100000 0.380778
458.200000 0.380802
458.300000 0.380827
458.400000 0.380852
458.500000 0.380877
458.600000 0.380993
458.700000 0.381110
458.800000 0.381227
458.900000 0.381344
459.000000 0.381461
459.100000 0.381590
459.200000 0.381720
459.300000 0.381849
459.400000 0.381978
459.500000 0.382107
459.600000 0.382143
459.700000 0.382180
459.800000 0.382215
459.900000 0.382251
460.000000 0.382285
460.100000 0.382405
460.200000 0.382524
460.300000 0.382642
460.400000 0.382760
460.500000 0.382877
460.600000 0.382901
460.700000 0.382925
460.800000 0.382949
460.900000 0.382972
461.000000 0.382994
461.100000 0.383088
461.200000 0.383180
461.300000 0.383272
461.400000 0.383364
461.500000 0.383456
461.600000 0.383456
461.700000 0.383455
461.800000 0.383453
461.900000 0.383452
462.000000 0.383449
462.100000 0.383560
462.200000 0.383671
462.300000 0.383781
462.400000 0.383892
462.500000 0.384002
462.600000 0.384113
462.700000 0.384224
462.800000 0.384335
462.900000 0.384446
463.000000 0.384557
463.100000 0.384576
463.200000 0.384594
463.300000 0.384612
463.400000 0.384630
463.500000 0.384649
463.600000 0.384759
463.700000 0.384868
463.800000 0.384977
463.900000 0.385086
464.000000 0.385195
464.100000 0.385195
464.200000 0.385194
464.300000 0.385194
464.400000 0.385195
464.500000 0.385195
464.600000 0.385289
464.700000 0.385382
464.800000 0.385477
464.900000 0.385573
465.000000 0.385670
465.100000 0.385777
465.200000 0.385886
465.300000 0.385995
465.400000 0.386106
465.500000 0.386218
465.600000 0.386331
465.700000 0.386445
465.800000 0.386560
465.900000 0.386675
466.000000 0.386791
466.100000 0.386922
466.200000 0.387054
466.300000 0.387186
466.400000 0.387317
466.500000 0.387449
466.600000 0.387487
466.700000 0.387526
466.800000 0.387565
466.900000 0.387604
467.000000 0.387643
467.100000 0.387752
467.200000 0.387861
467.300000 0.387971
467.400000 0.388080
467.500000 0.388189
467.600000 0.388207
467.700000 0.388224
467.800000 0.388241
467.900000 0.388259
468.000000 0.388276
468.100000 0.388386
468.200000 0.388496
468.300000 0.388606
468.400000 0.388715
468.500000 0.388825
468.600000 0.388843
468.700000 0.388861
468.800000 0.388879
468.900000 0.388897
469.000000 0.388915
469.100000 0.389019
469.200000 0.389124
469.300000 0.389228
469.400000 0.389332
469.500000 0.389437
469.600000 0.389449
469.700000 0.389462
469.800000 0.389474
469.900000 0.389487
470.000000 0.389499
470.100000 0.389597
470.200000 0.389695
470.300000 0.389793
470.400000 0.389891
470.500000 0.389989
470.600000 0.390087
470.700000 0.390185
470.800000 0.390283
470.900000 0.390381
471.000000 0.390479
471.100000 0.390511
471.200000 0.390544
471.300000 0.390577
471.400000 0.390609
471.500000 0.390642
471.600000 0.390767
471.700000 0.390891
471.800000 0.391016
471.900000 0.391141
472.000000 0.391265
472.100000 0.391270
472.200000 0.391274
472.300000 0.391278
472.400000 0.391283
472.500000 0.391287
472.600000 0.391384
472.700000 0.391480
472.800000 0.391576
472.900000 0.391673
473.000000 0.391769
473.100000 0.391783
473.200000 0.391796
473.300000 0.391810
473.400000 0.391823
473.500000 0.391837
473.600000 0.391942
473.700000 0.392048
473.800000 0.392154
473.900000 0.392259
474.000000 0.392365
474.100000 0.392386
474.200000 0.392407
474.300000 0.392428
474.400000 0.392450
474.500000 0.392471
474.600000 0.392492
474.700000 0.392513
474.800000 0.392534
474.900000 0.392556
475.000000 0.392577
475.100000 0.392671
475.200000 0.392766
475.300000 0.392860
475.400000 0.392955
475.500000 0.393049
475.600000 0.393052
475.700000 0.393054
475.800000 0.393057
475.900000 0.393059
476.000000 0.393061
476.100000 0.393158
476.200000 0.393254
476.300000 0.393351
476.400000 0.393447
476.500000 0.393544
476.600000 0.393548
476.700000 0.393553
476.800000 0.393557
476.900000 0.393561
477.000000 0.393566
477.100000 0.393580
477.200000 0.393594
477.300000 0.393607
477.400000 0.393621
477.500000 0.393635
477.600000 0.393741
477.700000 0.393847
477.800000 0.393953
477.900000 0.394060
478.000000 0.394166
478.100000 0.394177
478.200000 0.394189
478.300000 0.394201
478.400000 0.394213
478.500000 0.394225
478.600000 0.394237
478.700000 0.394248
478.800000 0.394260
478.900000 0.394272
479.000000 0.394284
479.100000 0.394287
479.200000 0.394290
479.300000 0.394293
479.400000 0.394296
479.500000 0.394300
479.600000 0.394303
479.700000 0.394306
479.800000 0.394309
479.900000 0.394312
480.000000 0.394315
480.100000 0.394411
480.200000 0.394506
480.300000 0.394601
480.400000 0.394696
480.500000 0.394792
480.600000 0.394795
480.700000 0.394798
480.800000 0.394801
480.900000 0.394804
481.000000 0.394807
481.100000 0.394900
481.200000 0.394994
481.300000 0.395087
481.400000 0.395181
481.500000 0.395274
481.600000 0.395275
481.700000 0.395276
481.800000 0.395277
481.900000 0.395279
482.000000 0.395280
482.100000 0.395394
482.200000 0.395508
482.300000 0.395622
482.400000 0.395737
482.500000 0.395851
482.600000 0.395873
482.700000 0.395895
482.800000 0.395917
482.900000 0.395939
483.000000 0.395961
483.100000 0.396056
483.200000 0.396150
483.300000 0.396245
483.400000 0.396340
483.500000 0.396434
483.600000 0.396530
483.700000 0.396625
483.800000 0.396721
483.900000 0.396816
484.000000 0.396912
484.100000 0.396912
484.200000 0.396912
484.300000 0.396911
484.400000 0.396910
484.500000 0.396908
484.600000 0.396998
484.700000 0.397087
484.800000 0.397175
484.900000 0.397262
485.000000 0.397349
485.100000 0.397334
485.200000 0.397319
485.300000 0.397302
485.400000 0.397285
485.500000 0.397267
485.600000 0.397341
485.700000 0.397414
485.800000 0.397487
485.900000 0.397559
486.000000 0.397631
486.100000 0.397723
486.200000 0.397814
486.300000 0.397905
486.400000 0.397996
486.500000 0.398087
486.600000 0.398086
486.700000 0.398084
486.800000 0.398082
486.900000 0.398080
487.000000 0.398078
487.100000 0.398161
487.200000 0.398244
487.300000 0.398326
487.400000 0.398409
487.500000 0.398492
487.600000 0.398482
487.700000 0.398472
487.800000 0.398463
487.900000 0.398454
488.000000 0.398444
488.100000 0.398428
488.200000 0.398413
488.300000 0.398397
488.400000 0.398382
488.500000 0.398368
488.600000 0.398353
488.700000 0.398338
488.800000 0.398323
488.900000 0.398309
489.000000 0.398294
489.100000 0.398375
489.200000 0.398456
489.300000 0.398537
489.400000 0.398619
489.500000 0.398702
489.600000 0.398693
489.700000 0.398685
489.800000 0.398677
489.900000 0.398670
490.000000 0.398665
490.100000 0.398738
490.200000 0.398813
490.300000 0.398888
490.400000 0.398964
490.500000 0.399041
490.600000 0.399027
490.700000 0.399013
490.800000 0.398999
490.900000 0.398986
491.000000 0.398974
491.100000 0.399055
491.200000 0.399137
491.300000 0.399218
491.400000 0.399299
491.500000 0.399380
491.600000 0.399368
491.700000 0.399356
491.800000 0.399345
491.900000 0.399333
492.000000 0.399321
492.100000 0.399422
492.200000 0.399523
492.300000 0.399624
492.400000 0.399725
492.500000 0.399826
492.600000 0.399835
492.700000 0.399844
492.800000 0.399852
492.900000 0.399861
493.000000 0.399870
493.100000 0.399862
493.200000 0.399853
493.300000 0.399844
493.400000 0.399836
493.500000 0.399827
493.600000 0.399911
493.700000 0.399994
493.800000 0.400078
493.900000 0.400161
494.000000 0.400245
494.100000 0.400230
494.200000 0.400216
494.300000 0.400201
494.400000 0.400187
494.500000 0.400173
494.600000 0.400158
494.700000 0.400144
494.800000 0.400129
494.900000 0.400115
495.000000 0.400101
495.100000 0.400190
495.200000 0.400280
495.300000 0.400369
495.400000 0.400459
495.500000 0.400548
495.600000 0.400545
495.700000 0.400543
495.800000 0.400540
495.900000 0.400538
496.000000 0.400535
496.100000 0.400529
496.200000 0.400523
496.300000 0.400517
496.400000 0.400511
496.500000 0.400505
496.600000 0.400499
496.700000 0.400493
496.800000 0.400487
496.900000 0.400481
497.000000 0.400475
497.100000 0.400573
497.200000 0.400671
497.300000 0.400768
497.400000 0.400866
497.500000 0.400964
497.600000 0.400969
497.700000 0.400975
497.800000 0.400980
497.900000 0.400986
498.000000 0.400992
498.100000 0.400981
498.200000 0.400971
498.300000 0.400961
498.400000 0.400951
498.500000 0.400941
498.600000 0.400931
498.700000 0.400920
498.800000 0.400910
498.900000 0.400900
499.000000 0.400890
499.100000 0.400967
499.200000 0.401044
499.300000 0.401122
499.400000 0.401199
499.500000 0.401276
499.600000 0.401261
499.700000 0.401246
499.800000 0.401232
499.900000 0.401217
500.000000 0.401202
500.100000 0.401107
500.200000 0.401011
500.300000 0.400916
500.400000 0.400821
500.500000 0.400726
500.600000 0.400722
500.700000 0.400719
500.800000 0.400716
500.900000 0.400713
501.000000 0.400710
501.100000 0.400705
501.200000 0.400701
501.300000 0.400697
501.400000 0.400693
501.500000 0.400688
501.600000 0.400684
501.700000 0.400680
501.800000 0.400675
501.900000 0.400671
502.000000 0.400667
502.100000 0.400648
502.200000 0.400630
502.300000 0.400612
502.400000 0.400593
502.500000 0.400575
502.600000 0.400464
502.700000 0.400354
502.800000 0.400243
502.900000 0.400133
503.000000 0.400022
503.100000 0.400021
503.200000 0.400019
503.300000 0.400017
503.400000 0.400016
503.500000 0.400014
503.600000 0.399921
503.700000 0.399828
503.800000 0.399736
503.900000 0.399644
504.000000 0.399551
504.100000 0.399626
504.200000 0.399700
504.300000 0.399774
504.400000 0.399847
504.500000 0.399919
504.600000 0.399990
504.700000 0.400060
504.800000 0.400129
504.900000 0.400196
505.000000 0.400262
505.100000 0.400246
505.200000 0.400230
505.300000 0.400212
505.400000 0.400193
505.500000 0.400173
505.600000 0.400153
505.700000 0.400132
505.800000 0.400111
505.900000 0.400090
506.000000 0.400068
506.100000 0.400156
506.200000 0.400245
506.300000 0.400333
506.400000 0.400422
506.500000 0.400511
506.600000 0.400601
506.700000 0.400690
506.800000 0.400780
506.900000 0.400869
507.000000 0.400958
507.100000 0.400931
507.200000 0.400905
507.300000 0.400878
507.400000 0.400851
507.500000 0.400823
507.600000 0.400888
507.700000 0.400952
507.800000 0.401017
507.900000 0.401081
508.000000 0.401146
508.100000 0.401114
508.200000 0.401082
508.300000 0.401050
508.400000 0.401019
508.500000 0.400988
508.600000 0.401049
508.700000 0.401110
508.800000 0.401170
508.900000 0.401231
509.000000 0.401292
509.100000 0.401370
509.200000 0.401448
509.300000 0.401527
509.400000 0.401607
509.500000 0.401687
509.600000 0.401675
509.700000 0.401665
509.800000 0.401655
509.900000 0.401646
510.000000 0.401638
510.100000 0.401720
510.200000 0.401803
510.300000 0.401886
510.400000 0.401970
510.500000 0.402055
510.600000 0.402049
510.700000 0.402044
510.800000 0.402039
510.900000 0.402035
511.000000 0.402031
511.100000 0.402119
511.200000 0.402208
511.300000 0.402296
511.400000 0.402385
511.500000 0.402473
511.600000 0.402469
511.700000 0.402465
511.800000 0.402461
511.900000 0.402457
512.000000 0.402453
512.100000 0.402456
512.200000 0.402460
512.300000 0.402463
512.400000 0.402467
512.500000 0.402470
512.600000 0.402566
512.700000 0.402661
512.800000 0.402756
512.900000 0.402851
513.000000 0.402946
513.100000 0.402927
513.200000 0.402908
513.300000 0.402889
513.400000 0.402869
513.500000 0.402850
513.600000 0.402831
513.700000 0.402812
513.800000 0.402793
513.900000 0.402773
514.000000 0.402754
514.100000 0.402859
514.200000 0.402964
514.300000 0.403069
514.400000 0.403174
514.500000 0.403280
514.600000 0.403293
514.700000 0.403306
514.800000 0.403320
514.900000 0.403333
515.000000 0.403347
515.100000 0.403345
515.200000 0.403342
515.300000 0.403340
515.400000 0.403338
515.500000 0.403336
515.600000 0.403334
515.700000 0.403332
515.800000 0.403330
515.900000 0.403328
516.000000 0.403325
516.100000 0.403418
516.200000 0.403512
516.300000 0.403605
516.400000 0.403698
516.500000 0.403791
516.600000 0.403792
516.700000 0.403794
516.800000 0.403795
516.900000 0.403797
517.000000 0.403798
517.100000 0.403784
517.200000 0.403770
517.300000 0.403756
517.400000 0.403742
517.500000 0.403729
517.600000 0.403715
517.700000 0.403701
517.800000 0.403687
517.900000 0.403673
518.000000 0.403659
518.100000 0.403639
518.200000 0.403620
518.300000 0.403600
518.400000 0.403581
518.500000 0.403561
518.600000 0.403542
518.700000 0.403522
518.800000 0.403503
518.900000 0.403483
519.000000 0.403464
519.100000 0.403563
519.200000 0.403663
519.300000 0.403763
519.400000 0.403863
519.500000 0.403963
519.600000 0.403971
519.700000 0.403980
519.800000 0.403988
519.900000 0.403996
520.000000 0.404005
520.100000 0.404015
520.200000 0.404026
520.300000 0.404036
520.400000 0.404047
520.500000 0.404058
520.600000 0.404068
520.700000 0.404079
520.800000 0.404089
520.900000 0.404100
521.000000 0.404110
521.100000 0.404094
521.200000 0.404077
521.300000 0.404060
521.400000 0.404044
521.500000 0.404027
521.600000 0.404010
521.700000 0.403993
521.800000 0.403977
521.900000 0.403960
522.000000 0.403943
522.100000 0.403934
522.200000 0.403925
522.300000 0.403916
522.400000 0.403906
522.500000 0.403897
522.600000 0.403888
522.700000 0.403878
522.800000 0.403869
522.900000 0.403860
523.000000 0.403850
523.100000 0.403855
523.200000 0.403860
523.300000 0.403864
523.400000 0.403869
523.500000 0.403873
523.600000 0.403878
523.700000 0.403883
523.800000 0.403887
523.900000 0.403892
524.000000 0.403896
524.100000 0.403901
524.200000 0.403906
524.300000 0.403910
524.400000 0.403915
524.500000 0.403919
524.600000 0.403924
524.700000 0.403928
524.800000 0.403933
524.900000 0.403938
525.000000 0.403942
525.100000 0.403835
525.200000 0.403729
525.300000 0.403622
525.400000 0.403515
525.500000 0.403409
525.600000 0.403393
525.700000 0.403378
525.800000 0.403363
525.900000 0.403348
526.000000 0.403333
526.100000 0.403339
526.200000 0.403345
526.300000 0.403351
526.400000 0.403357
526.500000 0.403362
526.600000 0.403368
526.700000 0.403374
526.800000 0.403380
526.900000 0.403386
527.000000 0.403392
527.100000 0.403407
527.200000 0.403422
527.300000 0.403437
527.400000 0.403452
527.500000 0.403468
527.600000 0.403483
527.700000 0.403498
527.800000 0.403513
527.900000 0.403528
528.000000 0.403543
528.100000 0.403540
528.200000 0.403536
528.300000 0.403532
528.400000 0.403529
528.500000 0.403525
528.600000 0.403521
528.700000 0.403517
528.800000 0.403514
528.900000 0.403510
529.000000 0.403506
529.100000 0.403514
529.200000 0.403522
529.300000 0.403530
529.400000 0.403537
529.500000 0.403545
529.600000 0.403553
529.700000 0.403561
529.800000 0.403568
529.900000 0.403576
530.000000 0.403584
530.100000 0.403591
530.200000 0.403597
530.300000 0.403604
530.400000 0.403611
530.500000 0.403617
530.600000 0.403624
530.700000 0.403631
530.800000 0.403637
530.900000 0.403644
531.000000 0.403651
531.100000 0.403656
531.200000 0.403662
531.300000 0.403668
531.400000 0.403674
531.500000 0.403679
531.600000 0.403685
531.700000 0.403691
531.800000 0.403697
531.900000 0.403702
532.000000 0.403708
532.100000 0.403689
532.200000 0.403669
532.300000 0.403650
532.400000 0.403631
532.500000 0.403611
532.600000 0.403592
532.700000 0.403572
532.800000 0.403553
532.900000 0.403534
533.000000 0.403514
533.100000 0.403628
533.200000 0.403741
533.300000 0.403855
533.400000 0.403968
533.500000 0.404081
533.600000 0.404103
533.700000 0.404125
533.800000 0.404147
533.900000 0.404169
534.000000 0.404191
534.100000 0.404197
534.200000 0.404203
534.300000 0.404209
534.400000 0.404215
534.500000 0.404221
534.600000 0.404319
534.700000 0.404417
534.800000 0.404514
534.900000 0.404612
535.000000 0.404710
535.100000 0.404727
535.200000 0.404744
535.300000 0.404761
535.400000 0.404778
535.500000 0.404796
535.600000 0.404905
535.700000 0.405013
535.800000 0.405122
535.900000 0.405231
536.000000 0.405340
536.100000 0.405334
536.200000 0.405329
536.300000 0.405323
536.400000 0.405317
536.500000 0.405311
536.600000 0.405306
536.700000 0.405300
536.800000 0.405294
536.900000 0.405289
537.000000 0.405283
537.100000 0.405315
537.200000 0.405348
537.300000 0.404777
537.400000 0.404205
537.500000 0.403460
537.600000 0.402807
537.700000 0.402131
537.800000 0.401455
537.900000 0.400778
538.000000 0.400101
538.100000 0.399301
538.200000 0.398501
538.300000 0.397701
538.400000 0.396901
538.500000 0.396122
538.600000 0.395344
538.700000 0.394545
538.800000 0.393746
538.900000 0.392947
539.000000 0.392147
539.100000 0.391364
539.200000 0.390580
539.300000 0.389796
539.400000 0.389011
539.500000 0.388247
539.600000 0.387482
539.700000 0.386695
539.800000 0.385907
539.900000 0.385118
540.000000 0.384329
540.100000 0.383522
540.200000 0.382714
540.300000 0.381906
540.400000 0.381096
540.500000 0.380308
540.600000 0.379432
540.700000 0.378534
540.800000 0.377636
540.900000 0.376738
541.000000 0.375839
541.100000 0.375042
541.200000 0.374244
541.300000 0.372842
541.400000 0.371439
541.500000 0.369842
541.600000 0.368246
541.700000 0.366629
541.800000 0.365011
541.900000 0.363415
542.000000 0.361819
542.100000 0.360219
542.200000 0.358620
542.300000 0.356998
542.400000 0.355377
542.500000 0.353777
542.600000 0.352257
542.700000 0.350737
542.800000 0.349215
542.900000 0.347671
543.000000 0.346126
543.100000 0.344526
543.200000 0.342927
543.300000 0.341328
543.400000 0.339729
543.500000 0.338108
543.600000 0.336487
543.700000 0.334888
543.800000 0.333289
543.900000 0.331690
544.000000 0.330092
544.100000 0.328481
544.200000 0.326870
544.300000 0.325281
544.400000 0.323693
544.500000 0.322084
544.600000 0.320476
544.700000 0.318890
544.800000 0.317305
544.900000 0.315720
545.000000 0.314136
545.100000 0.312508
545.200000 0.310880
545.300000 0.309274
545.400000 0.307669
545.500000 0.306064
545.600000 0.304459
545.700000 0.302833
545.800000 0.301208
545.900000 0.299604
546.000000 0.298000
546.100000 0.296424
546.200000 0.294847
546.300000 0.293249
546.400000 0.291651
546.500000 0.290073
546.600000 0.288495
546.700000 0.286895
546.800000 0.285295
546.900000 0.283716
547.000000 0.282137
547.100000 0.280623
547.200000 0.279107
547.300000 0.277569
547.400000 0.276029
547.500000 0.274511
547.600000 0.272929
547.700000 0.271348
547.800000 0.269766
547.900000 0.268162
548.000000 0.266558
548.100000 0.264959
548.200000 0.263361
548.300000 0.261762
548.400000 0.260163
548.500000 0.258542
548.600000 0.256921
548.700000 0.255322
548.800000 0.253722
548.900000 0.252101
549.000000 0.250480
549.100000 0.248881
549.200000 0.247281
549.300000 0.245682
549.400000 0.244082
549.500000 0.242461
549.600000 0.240894
549.700000 0.239348
549.800000 0.237801
549.900000 0.236253
550.000000 0.234704
550.100000 0.233088
550.200000 0.231471
550.300000 0.229876
550.400000 0.228280
550.500000 0.226685
550.600000 0.225089
550.700000 0.223471
550.800000 0.221853
550.900000 0.220257
551.000000 0.218660
551.100000 0.217063
551.200000 0.215466
551.300000 0.213847
551.400000 0.212227
551.500000 0.210630
551.600000 0.209032
551.700000 0.207412
551.800000 0.205792
551.900000 0.204193
552.000000 0.202595
552.100000 0.200994
552.200000 0.199393
552.300000 0.197770
552.400000 0.196147
552.500000 0.194545
552.600000 0.192944
552.700000 0.191342
552.800000 0.189740
552.900000 0.188116
553.000000 0.186492
553.100000 0.184893
553.200000 0.183294
553.300000 0.181694
553.400000 0.180095
553.500000 0.178473
553.600000 0.176851
553.700000 0.175251
553.800000 0.173650
553.900000 0.172028
554.000000 0.170405
554.100000 0.168805
554.200000 0.167204
554.300000 0.165603
554.400000 0.164002
554.500000 0.162379
554.600000 0.160792
554.700000 0.159226
554.800000 0.157659
554.900000 0.156091
555.000000 0.154522
555.100000 0.152892
555.200000 0.151261
555.300000 0.149652
555.400000 0.148043
555.500000 0.146434
555.600000 0.144824
555.700000 0.143193
555.800000 0.141562
555.900000 0.139952
556.000000 0.138342
556.100000 0.136687
556.200000 0.135033
556.300000 0.133401
556.400000 0.131770
556.500000 0.130139
556.600000 0.128537
556.700000 0.126913
556.800000 0.125289
556.900000 0.123686
557.000000 0.122084
557.100000 0.120482
557.200000 0.118880
557.300000 0.117256
557.400000 0.115631
557.500000 0.114028
557.600000 0.112425
557.700000 0.110821
557.800000 0.109217
557.900000 0.107591
558.000000 0.105964
558.100000 0.104349
558.200000 0.102734
558.300000 0.101119
558.400000 0.099503
558.500000 0.097866
558.600000 0.096229
558.700000 0.094614
558.800000 0.092998
558.900000 0.091361
559.000000 0.089723
559.100000 0.088112
559.200000 0.086500
559.300000 0.084888
559.400000 0.083276
559.500000 0.081642
559.600000 0.079989
559.700000 0.078359
559.800000 0.076730
559.900000 0.075101
560.000000 0.073473
560.100000 0.071844
560.200000 0.070215
560.300000 0.068607
560.400000 0.066999
560.500000 0.065391
560.600000 0.063782
560.700000 0.062151
560.800000 0.060519
560.900000 0.058909
561.000000 0.057299
561.100000 0.055662
561.200000 0.054025
561.300000 0.052410
561.400000 0.050794
561.500000 0.049179
561.600000 0.047552
561.700000 0.045905
561.800000 0.044257
561.900000 0.042633
562.000000 0.041009
562.100000 0.040180
562.200000 0.039352
562.300000 0.038545
562.400000 0.037738
562.500000 0.036909
562.600000 0.036080
562.700000 0.035273
562.800000 0.034466
562.900000 0.033637
563.000000 0.032808
563.100000 0.032003
563.200000 0.031199
563.300000 0.030371
563.400000 0.029544
563.500000 0.028739
563.600000 0.027933
563.700000 0.027105
563.800000 0.026277
563.900000 0.025449
564.000000 0.024621
564.100000 0.023808
564.200000 0.022996
564.300000 0.022162
564.400000 0.021328
564.500000 0.020517
564.600000 0.019710
564.700000 0.018881
564.800000 0.018052
564.900000 0.017244
565.000000 0.016437
565.100000 0.015608
565.200000 0.014778
565.300000 0.013949
565.400000 0.013119
565.500000 0.012311
565.600000 0.011503
565.700000 0.010672
565.800000 0.009842
565.900000 0.009033
566.000000 0.008225
566.100000 0.007394
566.200000 0.006564
566.300000 0.005755
566.400000 0.004946
566.500000 0.004115
566.600000 0.003283
566.700000 0.002474
566.800000 0.001664
566.900000 0.000832
