# LSST transmission (instrument+atmosphere)
#   wavelength[nm] Thoughput
537.000000 0.000000
537.100000 0.000820
537.200000 0.001640
537.300000 0.002461
537.400000 0.003281
537.500000 0.004102
537.600000 0.004924
537.700000 0.005768
537.800000 0.006612
537.900000 0.007436
538.000000 0.008260
538.100000 0.009081
538.200000 0.009903
538.300000 0.010725
538.400000 0.011546
538.500000 0.012368
538.600000 0.013190
538.700000 0.014011
538.800000 0.014833
538.900000 0.015676
539.000000 0.016520
539.100000 0.017342
539.200000 0.018165
539.300000 0.018987
539.400000 0.019810
539.500000 0.020632
539.600000 0.021455
539.700000 0.022277
539.800000 0.023100
539.900000 0.023922
540.000000 0.024745
540.100000 0.025588
540.200000 0.026431
540.300000 0.027253
540.400000 0.028074
540.500000 0.028895
540.600000 0.029709
540.700000 0.030523
540.800000 0.031336
540.900000 0.032149
541.000000 0.032961
541.100000 0.033783
541.200000 0.034603
541.300000 0.035446
541.400000 0.036289
541.500000 0.037109
541.600000 0.037931
541.700000 0.038752
541.800000 0.039573
541.900000 0.040394
542.000000 0.041215
542.100000 0.042856
542.200000 0.044498
542.300000 0.046161
542.400000 0.047824
542.500000 0.049466
542.600000 0.051119
542.700000 0.052773
542.800000 0.054427
542.900000 0.056104
543.000000 0.057781
543.100000 0.059425
543.200000 0.061069
543.300000 0.062712
543.400000 0.064356
543.500000 0.066021
543.600000 0.067687
543.700000 0.069331
543.800000 0.070974
543.900000 0.072618
544.000000 0.074262
544.100000 0.075930
544.200000 0.077597
544.300000 0.079244
544.400000 0.080891
544.500000 0.082538
544.600000 0.084186
544.700000 0.085833
544.800000 0.087482
544.900000 0.089152
545.000000 0.090823
545.100000 0.092465
545.200000 0.094108
545.300000 0.095750
545.400000 0.097393
545.500000 0.099058
545.600000 0.100722
545.700000 0.102365
545.800000 0.104008
545.900000 0.105651
546.000000 0.107294
546.100000 0.108969
546.200000 0.110644
546.300000 0.112297
546.400000 0.113951
546.500000 0.115605
546.600000 0.117259
546.700000 0.118935
546.800000 0.120612
546.900000 0.122267
547.000000 0.123922
547.100000 0.125607
547.200000 0.127292
547.300000 0.129000
547.400000 0.130710
547.500000 0.132398
547.600000 0.134058
547.700000 0.135717
547.800000 0.137377
547.900000 0.139059
548.000000 0.140741
548.100000 0.142393
548.200000 0.144046
548.300000 0.145698
548.400000 0.147350
548.500000 0.149024
548.600000 0.150699
548.700000 0.152351
548.800000 0.154004
548.900000 0.155657
549.000000 0.157309
549.100000 0.158984
549.200000 0.160659
549.300000 0.162312
549.400000 0.163966
549.500000 0.165619
549.600000 0.167310
549.700000 0.169002
549.800000 0.170695
549.900000 0.172411
550.000000 0.174127
550.100000 0.175788
550.200000 0.177449
550.300000 0.179111
550.400000 0.180773
550.500000 0.182456
550.600000 0.184140
550.700000 0.185802
550.800000 0.187464
550.900000 0.189127
551.000000 0.190790
551.100000 0.192474
551.200000 0.194158
551.300000 0.195821
551.400000 0.197484
551.500000 0.199148
551.600000 0.200811
551.700000 0.202497
551.800000 0.204182
551.900000 0.205846
552.000000 0.207510
552.100000 0.209173
552.200000 0.210835
552.300000 0.212519
552.400000 0.214204
552.500000 0.215866
552.600000 0.217529
552.700000 0.219192
552.800000 0.220856
552.900000 0.222541
553.000000 0.224226
553.100000 0.225893
553.200000 0.227561
553.300000 0.229229
553.400000 0.230897
553.500000 0.232587
553.600000 0.234278
553.700000 0.235946
553.800000 0.237615
553.900000 0.239284
554.000000 0.240954
554.100000 0.242646
554.200000 0.244339
554.300000 0.246009
554.400000 0.247681
554.500000 0.249352
554.600000 0.251080
554.700000 0.252809
554.800000 0.254539
554.900000 0.256292
555.000000 0.258046
555.100000 0.259713
555.200000 0.261380
555.300000 0.263047
555.400000 0.264714
555.500000 0.266403
555.600000 0.268093
555.700000 0.269760
555.800000 0.271428
555.900000 0.273096
556.000000 0.274764
556.100000 0.276408
556.200000 0.278051
556.300000 0.279672
556.400000 0.281292
556.500000 0.282912
556.600000 0.284596
556.700000 0.286302
556.800000 0.288008
556.900000 0.289693
557.000000 0.291378
557.100000 0.293067
557.200000 0.294756
557.300000 0.296468
557.400000 0.298179
557.500000 0.299870
557.600000 0.301561
557.700000 0.303252
557.800000 0.304943
557.900000 0.306657
558.000000 0.308371
558.100000 0.310034
558.200000 0.311696
558.300000 0.313358
558.400000 0.315021
558.500000 0.316705
558.600000 0.318390
558.700000 0.320052
558.800000 0.321715
558.900000 0.323377
559.000000 0.325040
559.100000 0.326739
559.200000 0.328438
559.300000 0.330115
559.400000 0.331792
559.500000 0.333470
559.600000 0.335072
559.700000 0.336674
559.800000 0.338275
559.900000 0.339897
560.000000 0.341519
560.100000 0.343217
560.200000 0.344917
560.300000 0.346616
560.400000 0.348316
560.500000 0.350038
560.600000 0.351761
560.700000 0.353462
560.800000 0.355163
560.900000 0.356865
561.000000 0.358567
561.100000 0.360263
561.200000 0.361959
561.300000 0.363633
561.400000 0.365307
561.500000 0.366982
561.600000 0.368573
561.700000 0.370185
561.800000 0.371797
561.900000 0.373386
562.000000 0.374975
562.100000 0.376646
562.200000 0.378318
562.300000 0.380011
562.400000 0.381704
562.500000 0.383376
562.600000 0.385047
562.700000 0.386522
562.800000 0.387998
562.900000 0.388840
563.000000 0.389682
563.100000 0.390552
563.200000 0.391423
563.300000 0.392294
563.400000 0.393166
563.500000 0.394037
563.600000 0.394909
563.700000 0.395802
563.800000 0.396696
563.900000 0.397568
564.000000 0.398441
564.100000 0.399212
564.200000 0.399982
564.300000 0.400753
564.400000 0.401523
564.500000 0.402293
564.600000 0.403154
564.700000 0.404015
564.800000 0.404876
564.900000 0.405737
565.000000 0.406599
565.100000 0.407482
565.200000 0.408366
565.300000 0.409228
565.400000 0.410090
565.500000 0.410952
565.600000 0.411814
565.700000 0.412677
565.800000 0.413539
565.900000 0.414402
566.000000 0.415265
566.100000 0.416143
566.200000 0.417022
566.300000 0.417288
566.400000 0.417555
566.500000 0.417602
566.600000 0.417650
566.700000 0.417697
566.800000 0.417745
566.900000 0.417792
567.000000 0.417840
567.100000 0.417850
567.200000 0.417860
567.300000 0.417869
567.400000 0.417879
567.500000 0.417889
567.600000 0.417899
567.700000 0.417909
567.800000 0.417919
567.900000 0.417929
568.000000 0.417939
568.100000 0.417881
568.200000 0.417824
568.300000 0.417767
568.400000 0.417710
568.500000 0.417653
568.600000 0.417596
568.700000 0.417539
568.800000 0.417482
568.900000 0.417425
569.000000 0.417368
569.100000 0.417398
569.200000 0.417428
569.300000 0.417458
569.400000 0.417489
569.500000 0.417519
569.600000 0.417549
569.700000 0.417579
569.800000 0.417609
569.900000 0.417640
570.000000 0.417670
570.100000 0.417802
570.200000 0.417934
570.300000 0.418066
570.400000 0.418198
570.500000 0.418330
570.600000 0.418368
570.700000 0.418405
570.800000 0.418443
570.900000 0.418480
571.000000 0.418517
571.100000 0.418566
571.200000 0.418615
571.300000 0.418664
571.400000 0.418713
571.500000 0.418762
571.600000 0.418810
571.700000 0.418859
571.800000 0.418908
571.900000 0.418957
572.000000 0.419006
572.100000 0.419024
572.200000 0.419043
572.300000 0.419061
572.400000 0.419079
572.500000 0.419098
572.600000 0.419116
572.700000 0.419135
572.800000 0.419153
572.900000 0.419172
573.000000 0.419190
573.100000 0.419316
573.200000 0.419443
573.300000 0.419569
573.400000 0.419695
573.500000 0.419822
573.600000 0.419853
573.700000 0.419885
573.800000 0.419916
573.900000 0.419948
574.000000 0.419979
574.100000 0.420011
574.200000 0.420042
574.300000 0.420074
574.400000 0.420106
574.500000 0.420138
574.600000 0.420169
574.700000 0.420201
574.800000 0.420233
574.900000 0.420264
575.000000 0.420296
575.100000 0.420424
575.200000 0.420552
575.300000 0.420680
575.400000 0.420808
575.500000 0.420936
575.600000 0.420968
575.700000 0.421001
575.800000 0.421034
575.900000 0.421067
576.000000 0.421099
576.100000 0.421226
576.200000 0.421353
576.300000 0.421480
576.400000 0.421607
576.500000 0.421734
576.600000 0.421765
576.700000 0.421797
576.800000 0.421829
576.900000 0.421860
577.000000 0.421892
577.100000 0.422005
577.200000 0.422118
577.300000 0.422232
577.400000 0.422345
577.500000 0.422458
577.600000 0.422476
577.700000 0.422494
577.800000 0.422512
577.900000 0.422530
578.000000 0.422548
578.100000 0.422684
578.200000 0.422820
578.300000 0.422956
578.400000 0.423093
578.500000 0.423229
578.600000 0.423269
578.700000 0.423310
578.800000 0.423351
578.900000 0.423392
579.000000 0.423433
579.100000 0.423559
579.200000 0.423686
579.300000 0.423812
579.400000 0.423939
579.500000 0.424065
579.600000 0.424097
579.700000 0.424128
579.800000 0.424159
579.900000 0.424190
580.000000 0.424221
580.100000 0.424238
580.200000 0.424255
580.300000 0.424273
580.400000 0.424290
580.500000 0.424307
580.600000 0.424419
580.700000 0.424532
580.800000 0.424644
580.900000 0.424757
581.000000 0.424870
581.100000 0.424890
581.200000 0.424910
581.300000 0.424930
581.400000 0.424950
581.500000 0.424970
581.600000 0.425086
581.700000 0.425202
581.800000 0.425318
581.900000 0.425433
582.000000 0.425549
582.100000 0.425565
582.200000 0.425581
582.300000 0.425597
582.400000 0.425613
582.500000 0.425629
582.600000 0.425740
582.700000 0.425852
582.800000 0.425964
582.900000 0.426075
583.000000 0.426187
583.100000 0.426216
583.200000 0.426245
583.300000 0.426274
583.400000 0.426303
583.500000 0.426332
583.600000 0.426361
583.700000 0.426389
583.800000 0.426418
583.900000 0.426446
584.000000 0.426475
584.100000 0.426522
584.200000 0.426569
584.300000 0.426617
584.400000 0.426665
584.500000 0.426714
584.600000 0.426858
584.700000 0.427003
584.800000 0.427148
584.900000 0.427294
585.000000 0.427441
585.100000 0.427468
585.200000 0.427495
585.300000 0.427523
585.400000 0.427553
585.500000 0.427583
585.600000 0.427614
585.700000 0.427647
585.800000 0.427681
585.900000 0.427715
586.000000 0.427751
586.100000 0.427775
586.200000 0.427800
586.300000 0.427826
586.400000 0.427851
586.500000 0.427877
586.600000 0.427902
586.700000 0.427928
586.800000 0.427953
586.900000 0.427979
587.000000 0.428005
587.100000 0.427959
587.200000 0.427914
587.300000 0.427868
587.400000 0.427823
587.500000 0.427777
587.600000 0.427634
587.700000 0.427492
587.800000 0.427350
587.900000 0.427209
588.000000 0.427067
588.100000 0.426824
588.200000 0.426580
588.300000 0.426337
588.400000 0.426094
588.500000 0.425852
588.600000 0.425706
588.700000 0.425561
588.800000 0.425416
588.900000 0.425271
589.000000 0.425125
589.100000 0.425164
589.200000 0.425201
589.300000 0.425237
589.400000 0.425271
589.500000 0.425304
589.600000 0.425239
589.700000 0.425172
589.800000 0.425103
589.900000 0.425032
590.000000 0.424959
590.100000 0.425174
590.200000 0.425387
590.300000 0.425599
590.400000 0.425808
590.500000 0.426016
590.600000 0.426221
590.700000 0.426426
590.800000 0.426628
590.900000 0.426829
591.000000 0.427029
591.100000 0.426939
591.200000 0.426849
591.300000 0.426758
591.400000 0.426667
591.500000 0.426578
591.600000 0.426393
591.700000 0.426208
591.800000 0.426023
591.900000 0.425839
592.000000 0.425655
592.100000 0.425675
592.200000 0.425696
592.300000 0.425716
592.400000 0.425737
592.500000 0.425758
592.600000 0.426068
592.700000 0.426377
592.800000 0.426686
592.900000 0.426995
593.000000 0.427304
593.100000 0.427426
593.200000 0.427549
593.300000 0.427671
593.400000 0.427794
593.500000 0.427917
593.600000 0.427750
593.700000 0.427583
593.800000 0.427417
593.900000 0.427250
594.000000 0.427085
594.100000 0.426709
594.200000 0.426335
594.300000 0.425961
594.400000 0.425590
594.500000 0.425219
594.600000 0.425428
594.700000 0.425639
594.800000 0.425851
594.900000 0.426064
595.000000 0.426279
595.100000 0.426600
595.200000 0.426923
595.300000 0.427248
595.400000 0.427574
595.500000 0.427901
595.600000 0.428038
595.700000 0.428175
595.800000 0.428315
595.900000 0.428455
596.000000 0.428597
596.100000 0.428646
596.200000 0.428696
596.300000 0.428746
596.400000 0.428796
596.500000 0.428847
596.600000 0.428800
596.700000 0.428753
596.800000 0.428706
596.900000 0.428660
597.000000 0.428613
597.100000 0.428671
597.200000 0.428728
597.300000 0.428786
597.400000 0.428843
597.500000 0.428900
597.600000 0.429054
597.700000 0.429208
597.800000 0.429362
597.900000 0.429516
598.000000 0.429670
598.100000 0.429705
598.200000 0.429741
598.300000 0.429777
598.400000 0.429813
598.500000 0.429849
598.600000 0.429886
598.700000 0.429924
598.800000 0.429962
598.900000 0.430000
599.000000 0.430038
599.100000 0.430188
599.200000 0.430337
599.300000 0.430485
599.400000 0.430631
599.500000 0.430775
599.600000 0.430821
599.700000 0.430865
599.800000 0.430907
599.900000 0.430947
600.000000 0.430985
600.100000 0.431112
600.200000 0.431237
600.300000 0.431360
600.400000 0.431481
600.500000 0.431600
600.600000 0.431621
600.700000 0.431639
600.800000 0.431656
600.900000 0.431672
601.000000 0.431687
601.100000 0.431716
601.200000 0.431745
601.300000 0.431774
601.400000 0.431803
601.500000 0.431833
601.600000 0.431864
601.700000 0.431895
601.800000 0.431926
601.900000 0.431958
602.000000 0.431989
602.100000 0.432094
602.200000 0.432199
602.300000 0.432304
602.400000 0.432410
602.500000 0.432515
602.600000 0.432523
602.700000 0.432531
602.800000 0.432539
602.900000 0.432547
603.000000 0.432555
603.100000 0.432579
603.200000 0.432604
603.300000 0.432629
603.400000 0.432654
603.500000 0.432679
603.600000 0.432801
603.700000 0.432922
603.800000 0.433044
603.900000 0.433167
604.000000 0.433290
604.100000 0.433291
604.200000 0.433292
604.300000 0.433294
604.400000 0.433298
604.500000 0.433302
604.600000 0.433405
604.700000 0.433509
604.800000 0.433614
604.900000 0.433719
605.000000 0.433826
605.100000 0.433861
605.200000 0.433896
605.300000 0.433932
605.400000 0.433968
605.500000 0.434005
605.600000 0.434139
605.700000 0.434274
605.800000 0.434409
605.900000 0.434544
606.000000 0.434680
606.100000 0.434724
606.200000 0.434768
606.300000 0.434812
606.400000 0.434855
606.500000 0.434899
606.600000 0.435040
606.700000 0.435180
606.800000 0.435320
606.900000 0.435461
607.000000 0.435602
607.100000 0.435631
607.200000 0.435660
607.300000 0.435689
607.400000 0.435718
607.500000 0.435747
607.600000 0.435873
607.700000 0.435999
607.800000 0.436125
607.900000 0.436252
608.000000 0.436378
608.100000 0.436402
608.200000 0.436427
608.300000 0.436451
608.400000 0.436476
608.500000 0.436500
608.600000 0.436622
608.700000 0.436744
608.800000 0.436866
608.900000 0.436987
609.000000 0.437109
609.100000 0.437150
609.200000 0.437191
609.300000 0.437233
609.400000 0.437274
609.500000 0.437315
609.600000 0.437454
609.700000 0.437592
609.800000 0.437731
609.900000 0.437869
610.000000 0.438008
610.100000 0.438150
610.200000 0.438292
610.300000 0.438434
610.400000 0.438575
610.500000 0.438717
610.600000 0.438762
610.700000 0.438806
610.800000 0.438851
610.900000 0.438895
611.000000 0.438940
611.100000 0.439057
611.200000 0.439174
611.300000 0.439291
611.400000 0.439408
611.500000 0.439525
611.600000 0.439544
611.700000 0.439563
611.800000 0.439583
611.900000 0.439602
612.000000 0.439622
612.100000 0.439762
612.200000 0.439903
612.300000 0.440043
612.400000 0.440184
612.500000 0.440324
612.600000 0.440367
612.700000 0.440410
612.800000 0.440453
612.900000 0.440496
613.000000 0.440539
613.100000 0.440669
613.200000 0.440798
613.300000 0.440928
613.400000 0.441057
613.500000 0.441187
613.600000 0.441316
613.700000 0.441446
613.800000 0.441575
613.900000 0.441705
614.000000 0.441835
614.100000 0.441855
614.200000 0.441875
614.300000 0.441895
614.400000 0.441915
614.500000 0.441935
614.600000 0.442053
614.700000 0.442171
614.800000 0.442289
614.900000 0.442407
615.000000 0.442524
615.100000 0.442561
615.200000 0.442597
615.300000 0.442633
615.400000 0.442669
615.500000 0.442705
615.600000 0.442839
615.700000 0.442973
615.800000 0.443107
615.900000 0.443241
616.000000 0.443375
616.100000 0.443426
616.200000 0.443478
616.300000 0.443529
616.400000 0.443581
616.500000 0.443632
616.600000 0.443782
616.700000 0.443931
616.800000 0.444081
616.900000 0.444230
617.000000 0.444380
617.100000 0.444411
617.200000 0.444443
617.300000 0.444475
617.400000 0.444506
617.500000 0.444538
617.600000 0.444668
617.700000 0.444797
617.800000 0.444927
617.900000 0.445056
618.000000 0.445186
618.100000 0.445213
618.200000 0.445239
618.300000 0.445266
618.400000 0.445293
618.500000 0.445319
618.600000 0.445346
618.700000 0.445372
618.800000 0.445399
618.900000 0.445425
619.000000 0.445452
619.100000 0.445583
619.200000 0.445715
619.300000 0.445846
619.400000 0.445977
619.500000 0.446108
619.600000 0.446141
619.700000 0.446175
619.800000 0.446208
619.900000 0.446241
620.000000 0.446274
620.100000 0.446393
620.200000 0.446512
620.300000 0.446630
620.400000 0.446749
620.500000 0.446868
620.600000 0.446889
620.700000 0.446909
620.800000 0.446930
620.900000 0.446951
621.000000 0.446971
621.100000 0.447017
621.200000 0.447062
621.300000 0.447108
621.400000 0.447153
621.500000 0.447199
621.600000 0.447343
621.700000 0.447486
621.800000 0.447630
621.900000 0.447774
622.000000 0.447918
622.100000 0.447953
622.200000 0.447987
622.300000 0.448021
622.400000 0.448056
622.500000 0.448090
622.600000 0.448223
622.700000 0.448356
622.800000 0.448489
622.900000 0.448622
623.000000 0.448755
623.100000 0.448782
623.200000 0.448809
623.300000 0.448836
623.400000 0.448864
623.500000 0.448891
623.600000 0.448918
623.700000 0.448944
623.800000 0.448971
623.900000 0.448997
624.000000 0.449024
624.100000 0.449150
624.200000 0.449275
624.300000 0.449402
624.400000 0.449528
624.500000 0.449656
624.600000 0.449685
624.700000 0.449714
624.800000 0.449744
624.900000 0.449774
625.000000 0.449805
625.100000 0.449848
625.200000 0.449891
625.300000 0.449935
625.400000 0.449981
625.500000 0.450027
625.600000 0.450174
625.700000 0.450321
625.800000 0.450470
625.900000 0.450620
626.000000 0.450771
626.100000 0.450816
626.200000 0.450861
626.300000 0.450908
626.400000 0.450954
626.500000 0.451001
626.600000 0.450948
626.700000 0.450896
626.800000 0.450843
626.900000 0.450791
627.000000 0.450739
627.100000 0.449884
627.200000 0.449028
627.300000 0.448173
627.400000 0.447317
627.500000 0.446460
627.600000 0.445110
627.700000 0.443759
627.800000 0.442409
627.900000 0.441058
628.000000 0.439707
628.100000 0.440252
628.200000 0.440797
628.300000 0.441342
628.400000 0.441887
628.500000 0.442433
628.600000 0.443276
628.700000 0.444121
628.800000 0.444966
628.900000 0.445811
629.000000 0.446655
629.100000 0.446710
629.200000 0.446763
629.300000 0.446814
629.400000 0.446864
629.500000 0.446912
629.600000 0.447057
629.700000 0.447201
629.800000 0.447342
629.900000 0.447482
630.000000 0.447619
630.100000 0.448040
630.200000 0.448459
630.300000 0.448875
630.400000 0.449290
630.500000 0.449703
630.600000 0.450015
630.700000 0.450325
630.800000 0.450634
630.900000 0.450941
631.000000 0.451247
631.100000 0.451459
631.200000 0.451670
631.300000 0.451882
631.400000 0.452093
631.500000 0.452305
631.600000 0.452519
631.700000 0.452732
631.800000 0.452946
631.900000 0.453160
632.000000 0.453374
632.100000 0.453587
632.200000 0.453800
632.300000 0.454013
632.400000 0.454226
632.500000 0.454439
632.600000 0.454553
632.700000 0.454667
632.800000 0.454780
632.900000 0.454893
633.000000 0.455007
633.100000 0.455121
633.200000 0.455236
633.300000 0.455350
633.400000 0.455465
633.500000 0.455580
633.600000 0.455695
633.700000 0.455809
633.800000 0.455924
633.900000 0.456040
634.000000 0.456156
634.100000 0.456174
634.200000 0.456193
634.300000 0.456214
634.400000 0.456235
634.500000 0.456258
634.600000 0.456381
634.700000 0.456505
634.800000 0.456631
634.900000 0.456757
635.000000 0.456885
635.100000 0.456916
635.200000 0.456949
635.300000 0.456982
635.400000 0.457015
635.500000 0.457049
635.600000 0.457183
635.700000 0.457317
635.800000 0.457451
635.900000 0.457586
636.000000 0.457721
636.100000 0.457746
636.200000 0.457771
636.300000 0.457796
636.400000 0.457821
636.500000 0.457846
636.600000 0.457969
636.700000 0.458093
636.800000 0.458216
636.900000 0.458340
637.000000 0.458464
637.100000 0.458497
637.200000 0.458531
637.300000 0.458565
637.400000 0.458598
637.500000 0.458632
637.600000 0.458765
637.700000 0.458898
637.800000 0.459031
637.900000 0.459164
638.000000 0.459297
638.100000 0.459321
638.200000 0.459344
638.300000 0.459368
638.400000 0.459392
638.500000 0.459415
638.600000 0.459539
638.700000 0.459662
638.800000 0.459785
638.900000 0.459908
639.000000 0.460031
639.100000 0.460057
639.200000 0.460082
639.300000 0.460108
639.400000 0.460133
639.500000 0.460159
639.600000 0.460184
639.700000 0.460210
639.800000 0.460235
639.900000 0.460261
640.000000 0.460286
640.100000 0.460414
640.200000 0.460541
640.300000 0.460668
640.400000 0.460795
640.500000 0.460922
640.600000 0.460950
640.700000 0.460978
640.800000 0.461005
640.900000 0.461033
641.000000 0.461061
641.100000 0.461195
641.200000 0.461329
641.300000 0.461463
641.400000 0.461598
641.500000 0.461732
641.600000 0.461767
641.700000 0.461802
641.800000 0.461836
641.900000 0.461871
642.000000 0.461906
642.100000 0.461936
642.200000 0.461967
642.300000 0.461997
642.400000 0.462028
642.500000 0.462059
642.600000 0.462189
642.700000 0.462319
642.800000 0.462449
642.900000 0.462580
643.000000 0.462710
643.100000 0.462736
643.200000 0.462762
643.300000 0.462788
643.400000 0.462814
643.500000 0.462840
643.600000 0.462866
643.700000 0.462892
643.800000 0.462918
643.900000 0.462944
644.000000 0.462970
644.100000 0.463104
644.200000 0.463239
644.300000 0.463374
644.400000 0.463509
644.500000 0.463644
644.600000 0.463679
644.700000 0.463714
644.800000 0.463750
644.900000 0.463785
645.000000 0.463820
645.100000 0.463847
645.200000 0.463874
645.300000 0.463901
645.400000 0.463928
645.500000 0.463955
645.600000 0.463883
645.700000 0.463810
645.800000 0.463737
645.900000 0.463664
646.000000 0.463591
646.100000 0.463510
646.200000 0.463428
646.300000 0.463346
646.400000 0.463264
646.500000 0.463182
646.600000 0.463000
646.700000 0.462818
646.800000 0.462636
646.900000 0.462455
647.000000 0.462273
647.100000 0.462209
647.200000 0.462146
647.300000 0.462083
647.400000 0.462020
647.500000 0.461957
647.600000 0.461893
647.700000 0.461830
647.800000 0.461767
647.900000 0.461704
648.000000 0.461640
648.100000 0.461867
648.200000 0.462094
648.300000 0.462321
648.400000 0.462548
648.500000 0.462775
648.600000 0.462903
648.700000 0.463030
648.800000 0.463159
648.900000 0.463287
649.000000 0.463415
649.100000 0.463442
649.200000 0.463468
649.300000 0.463494
649.400000 0.463520
649.500000 0.463544
649.600000 0.463868
649.700000 0.464192
649.800000 0.464514
649.900000 0.464835
650.000000 0.465156
650.100000 0.465325
650.200000 0.465494
650.300000 0.465662
650.400000 0.465828
650.500000 0.465994
650.600000 0.465859
650.700000 0.465723
650.800000 0.465586
650.900000 0.465449
651.000000 0.465311
651.100000 0.465003
651.200000 0.464695
651.300000 0.464386
651.400000 0.464077
651.500000 0.463769
651.600000 0.463661
651.700000 0.463552
651.800000 0.463443
651.900000 0.463334
652.000000 0.463225
652.100000 0.463588
652.200000 0.463951
652.300000 0.464314
652.400000 0.464676
652.500000 0.465038
652.600000 0.465199
652.700000 0.465360
652.800000 0.465521
652.900000 0.465681
653.000000 0.465842
653.100000 0.465792
653.200000 0.465743
653.300000 0.465694
653.400000 0.465646
653.500000 0.465597
653.600000 0.465649
653.700000 0.465700
653.800000 0.465752
653.900000 0.465804
654.000000 0.465856
654.100000 0.465737
654.200000 0.465618
654.300000 0.465501
654.400000 0.465384
654.500000 0.465269
654.600000 0.465255
654.700000 0.465241
654.800000 0.465229
654.900000 0.465218
655.000000 0.465209
655.100000 0.465198
655.200000 0.465188
655.300000 0.465180
655.400000 0.465172
655.500000 0.465166
655.600000 0.465259
655.700000 0.465354
655.800000 0.465449
655.900000 0.465544
656.000000 0.465640
656.100000 0.465717
656.200000 0.465793
656.300000 0.465869
656.400000 0.465946
656.500000 0.466022
656.600000 0.466097
656.700000 0.466172
656.800000 0.466247
656.900000 0.466323
657.000000 0.466398
657.100000 0.466385
657.200000 0.466371
657.300000 0.466358
657.400000 0.466345
657.500000 0.466331
657.600000 0.466418
657.700000 0.466504
657.800000 0.466590
657.900000 0.466677
658.000000 0.466763
658.100000 0.466899
658.200000 0.467034
658.300000 0.467170
658.400000 0.467306
658.500000 0.467442
658.600000 0.467578
658.700000 0.467714
658.800000 0.467850
658.900000 0.467986
659.000000 0.468122
659.100000 0.468164
659.200000 0.468206
659.300000 0.468248
659.400000 0.468289
659.500000 0.468331
659.600000 0.468473
659.700000 0.468615
659.800000 0.468757
659.900000 0.468899
660.000000 0.469041
660.100000 0.469005
660.200000 0.468970
660.300000 0.468935
660.400000 0.468900
660.500000 0.468864
660.600000 0.468929
660.700000 0.468993
660.800000 0.469058
660.900000 0.469123
661.000000 0.469187
661.100000 0.469174
661.200000 0.469161
661.300000 0.469148
661.400000 0.469135
661.500000 0.469122
661.600000 0.469209
661.700000 0.469295
661.800000 0.469382
661.900000 0.469469
662.000000 0.469555
662.100000 0.469538
662.200000 0.469521
662.300000 0.469504
662.400000 0.469487
662.500000 0.469470
662.600000 0.469453
662.700000 0.469436
662.800000 0.469419
662.900000 0.469402
663.000000 0.469385
663.100000 0.469458
663.200000 0.469531
663.300000 0.469604
663.400000 0.469677
663.500000 0.469750
663.600000 0.469723
663.700000 0.469698
663.800000 0.469672
663.900000 0.469646
664.000000 0.469620
664.100000 0.469621
664.200000 0.469622
664.300000 0.469622
664.400000 0.469621
664.500000 0.469620
664.600000 0.469717
664.700000 0.469813
664.800000 0.469909
664.900000 0.470003
665.000000 0.470097
665.100000 0.470058
665.200000 0.470018
665.300000 0.469977
665.400000 0.469935
665.500000 0.469892
665.600000 0.469848
665.700000 0.469804
665.800000 0.469759
665.900000 0.469713
666.000000 0.469667
666.100000 0.469737
666.200000 0.469806
666.300000 0.469876
666.400000 0.469946
666.500000 0.470016
666.600000 0.469987
666.700000 0.469959
666.800000 0.469931
666.900000 0.469903
667.000000 0.469875
667.100000 0.469841
667.200000 0.469806
667.300000 0.469771
667.400000 0.469736
667.500000 0.469700
667.600000 0.469763
667.700000 0.469825
667.800000 0.469886
667.900000 0.469946
668.000000 0.470006
668.100000 0.470021
668.200000 0.470036
668.300000 0.470051
668.400000 0.470066
668.500000 0.470080
668.600000 0.470094
668.700000 0.470107
668.800000 0.470121
668.900000 0.470135
669.000000 0.470149
669.100000 0.470263
669.200000 0.470378
669.300000 0.470494
669.400000 0.470612
669.500000 0.470732
669.600000 0.470753
669.700000 0.470776
669.800000 0.470801
669.900000 0.470827
670.000000 0.470854
670.100000 0.470810
670.200000 0.470767
670.300000 0.470725
670.400000 0.470684
670.500000 0.470644
670.600000 0.470703
670.700000 0.470764
670.800000 0.470825
670.900000 0.470886
671.000000 0.470948
671.100000 0.470950
671.200000 0.470952
671.300000 0.470953
671.400000 0.470955
671.500000 0.470956
671.600000 0.470956
671.700000 0.470957
671.800000 0.470957
671.900000 0.470958
672.000000 0.470958
672.100000 0.471010
672.200000 0.471062
672.300000 0.471114
672.400000 0.471166
672.500000 0.471218
672.600000 0.471171
672.700000 0.471123
672.800000 0.471076
672.900000 0.471028
673.000000 0.470981
673.100000 0.470958
673.200000 0.470936
673.300000 0.470913
673.400000 0.470891
673.500000 0.470868
673.600000 0.470845
673.700000 0.470823
673.800000 0.470800
673.900000 0.470777
674.000000 0.470755
674.100000 0.470856
674.200000 0.470958
674.300000 0.471060
674.400000 0.471162
674.500000 0.471263
674.600000 0.471266
674.700000 0.471268
674.800000 0.471271
674.900000 0.471273
675.000000 0.471275
675.100000 0.471236
675.200000 0.471197
675.300000 0.471158
675.400000 0.471119
675.500000 0.471080
675.600000 0.471041
675.700000 0.471002
675.800000 0.470963
675.900000 0.470924
676.000000 0.470885
676.100000 0.470981
676.200000 0.471076
676.300000 0.471171
676.400000 0.471266
676.500000 0.471361
676.600000 0.471357
676.700000 0.471106
676.800000 0.470855
676.900000 0.469912
677.000000 0.468969
677.100000 0.468036
677.200000 0.467103
677.300000 0.466170
677.400000 0.465237
677.500000 0.464303
677.600000 0.463468
677.700000 0.462632
677.800000 0.461795
677.900000 0.460958
678.000000 0.460121
678.100000 0.459160
678.200000 0.458200
678.300000 0.457264
678.400000 0.456328
678.500000 0.455392
678.600000 0.454456
678.700000 0.453520
678.800000 0.452584
678.900000 0.451648
679.000000 0.450712
679.100000 0.449771
679.200000 0.448830
679.300000 0.447865
679.400000 0.446900
679.500000 0.445959
679.600000 0.445018
679.700000 0.444078
679.800000 0.443137
679.900000 0.442196
680.000000 0.441256
680.100000 0.440381
680.200000 0.439505
680.300000 0.437912
680.400000 0.436318
680.500000 0.434500
680.600000 0.432592
680.700000 0.430659
680.800000 0.428726
680.900000 0.426818
681.000000 0.424910
681.100000 0.423016
681.200000 0.421122
681.300000 0.419204
681.400000 0.417285
681.500000 0.415392
681.600000 0.413498
681.700000 0.411605
681.800000 0.409712
681.900000 0.407794
682.000000 0.405876
682.100000 0.403968
682.200000 0.402059
682.300000 0.400151
682.400000 0.398244
682.500000 0.396311
682.600000 0.394462
682.700000 0.392637
682.800000 0.390812
682.900000 0.388986
683.000000 0.387159
683.100000 0.385227
683.200000 0.383296
683.300000 0.381389
683.400000 0.379483
683.500000 0.377577
683.600000 0.375672
683.700000 0.373767
683.800000 0.371863
683.900000 0.369934
684.000000 0.368005
684.100000 0.366103
684.200000 0.364200
684.300000 0.362297
684.400000 0.360394
684.500000 0.358466
684.600000 0.356537
684.700000 0.354633
684.800000 0.352728
684.900000 0.350823
685.000000 0.348917
685.100000 0.346989
685.200000 0.345059
685.300000 0.343155
685.400000 0.341249
685.500000 0.339344
685.600000 0.337083
685.700000 0.334803
685.800000 0.332526
685.900000 0.330277
686.000000 0.328033
686.100000 0.322989
686.200000 0.317981
686.300000 0.312986
686.400000 0.308028
686.500000 0.303131
686.600000 0.293728
686.700000 0.284415
686.800000 0.275193
686.900000 0.266039
687.000000 0.256978
687.100000 0.251915
687.200000 0.246895
687.300000 0.241918
687.400000 0.236984
687.500000 0.232074
687.600000 0.234496
687.700000 0.236887
687.800000 0.239230
687.900000 0.241523
688.000000 0.243767
688.100000 0.245279
688.200000 0.246750
688.300000 0.248202
688.400000 0.249613
688.500000 0.250984
688.600000 0.248488
688.700000 0.246002
688.800000 0.243527
688.900000 0.241042
689.000000 0.238568
689.100000 0.236914
689.200000 0.235260
689.300000 0.233607
689.400000 0.231955
689.500000 0.230282
689.600000 0.229652
689.700000 0.229030
689.800000 0.228394
689.900000 0.227743
690.000000 0.227078
690.100000 0.226206
690.200000 0.225322
690.300000 0.224448
690.400000 0.223563
690.500000 0.222665
690.600000 0.221857
690.700000 0.221014
690.800000 0.220156
690.900000 0.219308
691.000000 0.218445
691.100000 0.217338
691.200000 0.216221
691.300000 0.215071
691.400000 0.213910
691.500000 0.212762
691.600000 0.211556
691.700000 0.210341
691.800000 0.209117
691.900000 0.207859
692.000000 0.206592
692.100000 0.205269
692.200000 0.203938
692.300000 0.202598
692.400000 0.201250
692.500000 0.199869
692.600000 0.198395
692.700000 0.196938
692.800000 0.195474
692.900000 0.194003
693.000000 0.192526
693.100000 0.190804
693.200000 0.189080
693.300000 0.187377
693.400000 0.185672
693.500000 0.183965
693.600000 0.182138
693.700000 0.180311
693.800000 0.178484
693.900000 0.176633
694.000000 0.174781
694.100000 0.172976
694.200000 0.171170
694.300000 0.169363
694.400000 0.167556
694.500000 0.165724
694.600000 0.163996
694.700000 0.162290
694.800000 0.160581
694.900000 0.158869
695.000000 0.157154
695.100000 0.155352
695.200000 0.153549
695.300000 0.151769
695.400000 0.149987
695.500000 0.148203
695.600000 0.146356
695.700000 0.144485
695.800000 0.142613
695.900000 0.140766
696.000000 0.138919
696.100000 0.137240
696.200000 0.135556
696.300000 0.133843
696.400000 0.132126
696.500000 0.130428
696.600000 0.128754
696.700000 0.127074
696.800000 0.125389
696.900000 0.123674
697.000000 0.121953
697.100000 0.120108
697.200000 0.118262
697.300000 0.116415
697.400000 0.114568
697.500000 0.112695
697.600000 0.110775
697.700000 0.108881
697.800000 0.106987
697.900000 0.105094
698.000000 0.103202
698.100000 0.101238
698.200000 0.099276
698.300000 0.097341
698.400000 0.095409
698.500000 0.093480
698.600000 0.091515
698.700000 0.089554
698.800000 0.087597
698.900000 0.085620
699.000000 0.083648
699.100000 0.081794
699.200000 0.079940
699.300000 0.078086
699.400000 0.076232
699.500000 0.074354
699.600000 0.072507
699.700000 0.070683
699.800000 0.068857
699.900000 0.067030
700.000000 0.065202
700.100000 0.063323
700.200000 0.061443
700.300000 0.059589
700.400000 0.057734
700.500000 0.055879
700.600000 0.054025
700.700000 0.052145
700.800000 0.050266
700.900000 0.048412
701.000000 0.046557
701.100000 0.045628
701.200000 0.044700
701.300000 0.043771
701.400000 0.042843
701.500000 0.041914
701.600000 0.040995
701.700000 0.040050
701.800000 0.039105
701.900000 0.038185
702.000000 0.037263
702.100000 0.036335
702.200000 0.035407
702.300000 0.034479
702.400000 0.033550
702.500000 0.032622
702.600000 0.031707
702.700000 0.030792
702.800000 0.029875
702.900000 0.028934
703.000000 0.027991
703.100000 0.027085
703.200000 0.026177
703.300000 0.025267
703.400000 0.024356
703.500000 0.023443
703.600000 0.022510
703.700000 0.021577
703.800000 0.020643
703.900000 0.019710
704.000000 0.018776
704.100000 0.017817
704.200000 0.016858
704.300000 0.015924
704.400000 0.014989
704.500000 0.014055
704.600000 0.013121
704.700000 0.012186
704.800000 0.011253
704.900000 0.010318
705.000000 0.009385
705.100000 0.008451
705.200000 0.007517
705.300000 0.006559
705.400000 0.005600
705.500000 0.004667
705.600000 0.003734
705.700000 0.002801
705.800000 0.001868
705.900000 0.000934
